%  1    time 0.000 sec
%  2  3 Motor voltage [V] left, right: 2.0 2.0
%  4  5 Motor current left, right [A]: 0.006 -0.013
%  6  7 Wheel velocity [r/s] left, right: 0.0000 0.0000
%  8    Battery voltage [V]: 12.17
0.001 2.0 2.0 0.101 0.082 0.0000 0.0000 12.12 
0.002 2.0 2.0 0.285 0.234 0.0000 0.0000 12.12 
0.003 2.0 2.0 0.355 0.336 0.0000 0.0000 12.12 
0.004 2.0 2.0 0.405 0.399 0.0000 0.0000 12.12 
0.005 2.0 2.0 0.412 0.399 0.0000 0.0000 12.12 
0.006 2.0 2.0 0.424 0.393 0.0000 0.0000 12.09 
0.007 2.0 2.0 0.443 0.367 0.0000 0.0000 12.09 
0.008 2.0 2.0 0.399 0.361 0.0000 0.0000 12.09 
0.009 2.0 2.0 0.437 0.361 0.0000 2.2881 12.09 
0.010 2.0 2.0 0.462 0.348 0.0000 2.2881 12.09 
0.011 2.0 2.0 0.469 0.336 0.0000 2.2881 12.04 
0.012 2.0 2.0 0.443 0.348 0.0000 2.2881 12.04 
0.013 2.0 2.0 0.424 0.304 2.7824 4.1354 12.04 
0.014 2.0 2.0 0.393 0.317 2.7824 4.1354 12.04 
0.015 2.0 2.0 0.355 0.291 2.7824 5.0458 12.04 
0.016 2.0 2.0 0.298 0.279 2.7824 5.0458 12.12 
0.017 2.0 2.0 0.247 0.317 3.4409 5.0458 12.12 
0.018 2.0 2.0 0.228 0.260 3.4409 5.6345 12.12 
0.019 2.0 2.0 0.234 0.266 3.4409 5.6345 12.12 
0.020 2.0 2.0 0.260 0.279 4.3342 5.8287 12.12 
0.021 2.0 2.0 0.317 0.260 4.3342 5.8287 12.12 
0.022 2.0 2.0 0.348 0.266 4.3342 6.1467 12.12 
0.023 2.0 2.0 0.348 0.279 4.6311 6.1467 12.12 
0.024 2.0 2.0 0.386 0.253 4.6311 6.6614 12.12 
0.025 2.0 2.0 0.329 0.247 5.7058 6.6614 12.12 
0.026 2.0 2.0 0.374 0.253 5.7058 7.1172 12.10 
0.027 2.0 2.0 0.329 0.247 6.1467 7.1172 12.10 
0.028 2.0 2.0 0.355 0.234 6.1467 7.3895 12.10 
0.029 2.0 2.0 0.323 0.247 7.0066 7.3895 12.10 
0.030 2.0 2.0 0.355 0.241 7.0066 7.5970 12.10 
0.031 2.0 2.0 0.342 0.228 7.3493 7.5970 12.09 
0.032 2.0 2.0 0.310 0.247 7.3493 7.3096 12.09 
0.033 2.0 2.0 0.285 0.260 7.8166 8.7810 12.09 
0.034 2.0 2.0 0.285 0.215 7.8166 8.7810 12.09 
0.035 2.0 2.0 0.285 0.241 7.2314 9.5906 12.09 
0.036 2.0 2.0 0.279 0.196 8.2961 8.7243 12.09 
0.037 2.0 2.0 0.272 0.215 8.2961 8.7243 12.09 
0.038 2.0 2.0 0.272 0.222 8.4517 8.4517 12.09 
0.039 2.0 2.0 0.266 0.209 8.4517 9.3260 12.09 
0.040 2.0 2.0 0.260 0.222 8.7243 9.3260 12.09 
0.041 2.0 2.0 0.285 0.209 8.8384 9.1370 12.12 
0.042 2.0 2.0 0.272 0.228 8.8384 9.3908 12.12 
0.043 2.0 2.0 0.272 0.158 9.4564 9.3908 12.12 
0.044 2.0 2.0 0.260 0.209 9.3260 9.8706 12.12 
0.045 2.0 2.0 0.260 0.177 9.7991 10.2445 12.12 
0.046 2.0 2.0 0.253 0.146 9.7991 9.8706 12.10 
0.047 2.0 2.0 0.203 0.146 8.9554 9.8706 12.10 
0.048 2.0 2.0 0.171 0.127 10.0916 10.0168 12.10 
0.049 2.0 2.0 0.171 0.158 10.0916 9.9432 12.10 
0.050 2.0 2.0 0.184 0.171 10.2445 10.4827 12.10 
0.051 2.0 2.0 0.222 0.165 10.2445 10.4827 12.09 
0.052 2.0 2.0 0.234 0.171 8.7810 9.9432 12.09 
0.053 2.0 2.0 0.241 0.184 8.7810 10.4021 12.09 
0.054 2.0 2.0 0.253 0.184 10.8182 10.5646 12.09 
0.055 2.0 2.0 0.266 0.196 11.8620 11.0842 12.09 
0.056 2.0 2.0 0.247 0.127 11.0842 11.0842 12.07 
0.057 2.0 2.0 0.228 0.177 9.7286 10.0916 12.07 
0.058 2.0 2.0 0.234 0.165 9.7286 10.9054 12.07 
0.059 2.0 2.0 0.241 0.165 11.0842 11.0842 12.07 
0.060 2.0 2.0 0.253 0.152 10.7323 11.3636 12.07 
0.061 2.0 2.0 0.234 0.158 11.2689 11.3636 12.13 
0.062 2.0 2.0 0.234 0.171 10.9941 10.8182 12.13 
0.063 2.0 2.0 0.228 0.158 11.8620 10.9941 12.13 
0.064 2.0 2.0 0.215 0.146 11.8620 11.5579 12.13 
0.065 2.0 2.0 0.215 0.152 11.1758 11.5579 12.13 
0.066 2.0 2.0 0.190 0.152 11.9670 10.9941 12.10 
0.067 2.0 2.0 0.171 0.139 10.9941 10.9941 12.10 
0.068 2.0 2.0 0.114 0.152 11.9670 11.1758 12.10 
0.069 2.0 2.0 0.127 0.139 11.2689 10.9941 12.10 
0.070 2.0 2.0 0.146 0.108 11.2689 11.7589 12.10 
0.071 2.0 2.0 0.184 0.108 11.9670 10.9941 12.12 
0.072 2.0 2.0 0.222 0.127 11.2689 11.4599 12.12 
0.073 2.0 2.0 0.215 0.152 12.2934 11.4599 12.12 
0.074 2.0 2.0 0.184 0.139 11.2689 11.5579 12.12 
0.075 2.0 2.0 0.222 0.146 12.5210 12.1826 12.12 
0.076 2.0 2.0 0.196 0.133 11.8620 12.1826 12.13 
0.077 2.0 2.0 0.184 0.114 12.6380 11.7589 12.13 
0.078 2.0 2.0 0.177 0.108 11.9670 11.2689 12.13 
0.079 2.0 2.0 0.190 0.108 11.9670 12.2934 12.13 
0.080 2.0 2.0 0.165 0.158 12.5210 12.0738 12.13 
0.081 2.0 2.0 0.190 0.146 12.6380 12.0738 12.12 
0.082 2.0 2.0 0.196 0.139 13.0026 11.9670 12.12 
0.083 2.0 2.0 0.196 0.133 12.4061 12.6380 12.12 
0.084 2.0 2.0 0.177 0.133 12.8788 12.6380 12.12 
0.085 2.0 2.0 0.139 0.120 11.9670 12.1826 12.12 
0.086 2.0 2.0 0.120 0.120 12.8788 12.1826 12.10 
0.087 2.0 2.0 0.158 0.139 11.8620 12.2934 12.10 
0.088 2.0 2.0 0.177 0.152 12.6380 12.7573 12.10 
0.089 2.0 2.0 0.196 0.152 12.2934 12.4061 12.10 
0.090 2.0 2.0 0.196 0.146 13.0026 12.2934 12.10 
0.091 2.0 2.0 0.234 0.152 12.7573 11.3636 12.12 
0.092 2.0 2.0 0.209 0.146 13.1288 11.3636 12.12 
0.093 2.0 2.0 0.165 0.158 12.1826 13.5227 12.12 
0.094 2.0 2.0 0.177 0.152 11.9670 13.2575 12.12 
0.095 2.0 2.0 0.184 0.120 13.1288 12.5210 12.12 
0.096 2.0 2.0 0.158 0.146 13.1288 11.8620 12.13 
0.097 2.0 2.0 0.152 0.152 13.2575 13.0026 12.13 
0.098 2.0 2.0 0.158 0.158 13.0026 12.5210 12.13 
0.099 2.0 2.0 0.165 0.139 13.5227 12.7573 12.13 
0.100 2.0 2.0 0.158 0.139 13.1288 13.0026 12.13 
0.101 2.0 2.0 0.177 0.127 13.5227 13.2575 12.09 
0.102 2.0 2.0 0.146 0.082 12.1826 12.6380 12.09 
0.103 2.0 2.0 0.095 0.076 12.8788 12.6380 12.09 
0.104 2.0 2.0 0.101 0.101 13.3888 12.6380 12.09 
0.105 2.0 2.0 0.146 0.108 13.3888 13.0026 12.09 
0.106 2.0 2.0 0.177 0.101 11.5579 12.1826 12.13 
0.107 2.0 2.0 0.190 0.114 12.5210 12.7573 12.13 
0.108 2.0 2.0 0.209 0.114 13.6593 12.7573 12.13 
0.109 2.0 2.0 0.184 0.165 13.7987 13.2575 12.13 
0.110 2.0 2.0 0.171 0.158 12.1826 12.7573 12.13 
0.111 2.0 2.0 0.196 0.120 13.0026 11.9670 12.12 
0.112 2.0 2.0 0.177 0.120 13.5227 12.8788 12.12 
0.113 2.0 2.0 0.177 0.133 13.7987 13.1288 12.12 
0.114 2.0 2.0 0.177 0.139 13.3888 13.3888 12.12 
0.115 2.0 2.0 0.152 0.133 13.9409 12.5210 12.12 
0.116 2.0 2.0 0.184 0.108 13.3888 12.8788 12.12 
0.117 2.0 2.0 0.146 0.114 13.7987 13.5227 12.12 
0.118 2.0 2.0 0.101 0.101 13.1288 13.3888 12.12 
0.119 2.0 2.0 0.095 0.101 13.6593 12.6380 12.12 
0.120 2.0 2.0 0.120 0.095 13.1288 13.0026 12.12 
0.121 2.0 2.0 0.139 0.095 13.3888 12.6380 12.10 
0.122 2.0 2.0 0.158 0.101 13.0026 13.3888 12.10 
0.123 2.0 2.0 0.158 0.089 13.5227 12.5210 12.10 
0.124 2.0 2.0 0.177 0.127 12.8788 13.0026 12.10 
0.125 2.0 2.0 0.165 0.133 13.3888 13.0026 12.10 
0.126 2.0 2.0 0.196 0.127 13.5227 13.3888 12.12 
0.127 2.0 2.0 0.177 0.114 13.7987 13.5227 12.12 
0.128 2.0 2.0 0.171 0.076 13.5227 13.1288 12.12 
0.129 2.0 2.0 0.165 0.082 13.7987 12.6380 12.12 
0.130 2.0 2.0 0.158 0.089 13.9409 13.5227 12.12 
0.131 2.0 2.0 0.171 0.114 14.2344 13.3888 12.13 
0.132 2.0 2.0 0.165 0.127 13.9409 13.1288 12.13 
0.133 2.0 2.0 0.139 0.127 14.0861 13.5227 12.13 
0.134 2.0 2.0 0.095 0.120 13.1288 13.6593 12.13 
0.135 2.0 2.0 0.120 0.101 13.6593 13.2575 12.13 
0.136 2.0 2.0 0.139 0.120 13.7987 13.1288 12.13 
0.137 2.0 2.0 0.133 0.120 13.7987 13.3888 12.13 
0.138 2.0 2.0 0.133 0.133 14.2344 13.5227 12.13 
0.139 2.0 2.0 0.171 0.146 14.2344 13.3888 12.13 
0.140 2.0 2.0 0.177 0.139 14.3858 13.1288 12.13 
0.141 2.0 2.0 0.158 0.146 13.2575 12.1826 12.12 
0.142 2.0 2.0 0.158 0.146 13.9409 13.0026 12.12 
0.143 2.0 2.0 0.146 0.152 14.2344 13.9409 12.12 
0.144 2.0 2.0 0.133 0.146 14.3858 13.3888 12.12 
0.145 2.0 2.0 0.139 0.127 14.3858 12.6380 12.12 
0.146 2.0 2.0 0.133 0.133 14.5405 13.2575 12.13 
0.147 2.0 2.0 0.158 0.101 14.3858 13.2575 12.13 
0.148 2.0 2.0 0.139 0.114 14.5405 13.2575 12.13 
0.149 2.0 2.0 0.082 0.108 13.1288 13.5227 12.13 
0.150 2.0 2.0 0.082 0.095 13.9409 13.6593 12.13 
0.151 2.0 2.0 0.101 0.063 14.3858 13.0026 12.15 
0.152 2.0 2.0 0.146 0.063 14.5405 13.2575 12.15 
0.153 2.0 2.0 0.165 0.057 12.4061 13.0026 12.15 
0.154 2.0 2.0 0.190 0.082 14.6986 13.5227 12.15 
0.155 2.0 2.0 0.190 0.101 14.8601 13.2575 12.15 
0.156 2.0 2.0 0.165 0.127 13.0026 12.6380 12.13 
0.157 2.0 2.0 0.177 0.114 13.9409 13.1288 12.13 
0.158 2.0 2.0 0.165 0.146 14.0861 13.1288 12.13 
0.159 2.0 2.0 0.158 0.076 14.5405 13.3888 12.13 
0.160 2.0 2.0 0.158 0.101 14.3858 12.2934 12.13 
0.161 2.0 2.0 0.158 0.120 14.8601 13.2575 12.10 
0.162 2.0 2.0 0.171 0.101 14.5405 13.3888 12.10 
0.163 2.0 2.0 0.127 0.120 14.6986 13.6593 12.10 
0.164 2.0 2.0 0.082 0.127 13.5227 12.8788 12.10 
0.165 2.0 2.0 0.095 0.101 14.0861 13.2575 12.10 
0.166 2.0 2.0 0.082 0.127 13.9409 13.6593 12.13 
0.167 2.0 2.0 0.108 0.120 14.2344 13.7987 12.13 
0.168 2.0 2.0 0.146 0.108 13.9409 13.0026 12.13 
0.169 2.0 2.0 0.165 0.108 14.2344 13.3888 12.13 
0.170 2.0 2.0 0.171 0.101 13.5227 12.8788 12.13 
0.171 2.0 2.0 0.165 0.095 14.0861 13.3888 12.13 
0.172 2.0 2.0 0.171 0.114 14.5405 12.8788 12.13 
0.173 2.0 2.0 0.158 0.095 14.3858 13.3888 12.13 
0.174 2.0 2.0 0.139 0.127 14.6986 13.2575 12.13 
0.175 2.0 2.0 0.146 0.108 14.6986 13.6593 12.13 
0.176 2.0 2.0 0.146 0.108 15.0252 13.9409 12.12 
0.177 2.0 2.0 0.146 0.089 14.6986 13.3888 12.12 
0.178 2.0 2.0 0.139 0.101 14.8601 12.8788 12.12 
0.179 2.0 2.0 0.095 0.120 14.3858 13.3888 12.12 
0.180 2.0 2.0 0.120 0.108 14.8601 13.6593 12.12 
0.181 2.0 2.0 0.127 0.120 14.5405 13.3888 12.13 
0.182 2.0 2.0 0.139 0.101 14.8601 13.7987 12.13 
0.183 2.0 2.0 0.133 0.108 14.6986 13.9409 12.13 
0.184 2.0 2.0 0.165 0.114 15.0252 13.5227 12.13 
0.185 2.0 2.0 0.158 0.108 15.1940 13.5227 12.13 
0.186 2.0 2.0 0.120 0.133 14.5405 13.6593 12.13 
0.187 2.0 2.0 0.127 0.152 15.0252 13.7987 12.13 
0.188 2.0 2.0 0.139 0.120 15.0252 13.7987 12.13 
0.189 2.0 2.0 0.133 0.127 15.1940 13.5227 12.13 
0.190 2.0 2.0 0.114 0.146 15.0252 12.4061 12.13 
0.191 2.0 2.0 0.139 0.120 15.1940 13.2575 12.12 
0.192 2.0 2.0 0.152 0.127 15.0252 14.2344 12.12 
0.193 2.0 2.0 0.146 0.114 15.1940 13.5227 12.12 
0.194 2.0 2.0 0.108 0.133 14.3858 12.8788 12.12 
0.195 2.0 2.0 0.082 0.114 14.8601 13.3888 12.12 
0.196 2.0 2.0 0.101 0.101 14.8601 13.5227 12.10 
0.197 2.0 2.0 0.127 0.108 12.5210 13.6593 12.10 
0.198 2.0 2.0 0.133 0.127 13.6593 13.7987 12.10 
0.199 2.0 2.0 0.184 0.089 14.6986 14.0861 12.10 
0.200 2.0 2.0 0.184 0.076 14.8601 13.5227 12.10 
0.201 2.0 2.0 0.177 0.070 13.1288 13.5227 12.13 
0.202 2.0 2.0 0.171 0.057 14.0861 13.3888 12.13 
0.203 2.0 2.0 0.165 0.070 14.2344 13.6593 12.13 
0.204 2.0 2.0 0.146 0.095 14.6986 13.0026 12.13 
0.205 2.0 2.0 0.165 0.120 14.5405 13.5227 12.13 
0.206 2.0 2.0 0.146 0.127 15.0252 13.7987 12.13 
0.207 2.0 2.0 0.171 0.114 15.0252 13.5227 12.13 
0.208 2.0 2.0 0.095 0.108 14.5405 12.6380 12.13 
0.209 2.0 2.0 0.070 0.101 14.8601 13.5227 12.13 
0.210 2.0 2.0 0.076 0.114 14.5405 13.6593 12.13 
0.211 2.0 2.0 0.089 0.120 14.8601 13.6593 12.09 
0.212 2.0 2.0 0.133 0.101 14.5405 13.2575 12.09 
0.213 2.0 2.0 0.171 0.101 14.8601 13.5227 12.09 
0.214 2.0 2.0 0.165 0.133 14.3858 14.0861 12.09 
0.215 2.0 2.0 0.171 0.127 14.8601 13.2575 12.09 
0.216 2.0 2.0 0.146 0.108 14.6986 13.5227 12.15 
0.217 2.0 2.0 0.133 0.095 15.0252 13.1288 12.15 
0.218 2.0 2.0 0.139 0.095 14.8601 13.6593 12.15 
0.219 2.0 2.0 0.139 0.070 15.1940 13.2575 12.15 
0.220 2.0 2.0 0.146 0.095 15.3667 13.5227 12.15 
0.221 2.0 2.0 0.158 0.089 15.1940 13.6593 12.09 
0.222 2.0 2.0 0.146 0.114 15.3667 13.9409 12.09 
0.223 2.0 2.0 0.120 0.089 14.8601 14.0861 12.09 
0.224 2.0 2.0 0.114 0.076 15.1940 13.9409 12.09 
0.225 2.0 2.0 0.108 0.095 14.8601 13.1288 12.09 
0.226 2.0 2.0 0.139 0.101 15.1940 13.6593 12.12 
0.227 2.0 2.0 0.146 0.127 15.3667 13.7987 12.12 
0.228 2.0 2.0 0.158 0.127 15.3667 13.7987 12.12 
0.229 2.0 2.0 0.158 0.114 15.5433 14.0861 12.12 
0.230 2.0 2.0 0.133 0.114 14.8601 14.2344 12.12 
0.231 2.0 2.0 0.146 0.101 15.3667 13.9409 12.12 
0.232 2.0 2.0 0.108 0.120 15.3667 13.5227 12.12 
0.233 2.0 2.0 0.133 0.101 15.5433 13.6593 12.12 
0.234 2.0 2.0 0.139 0.108 15.3667 13.9409 12.12 
0.235 2.0 2.0 0.139 0.120 15.1940 13.7987 12.12 
0.236 2.0 2.0 0.158 0.114 15.3667 13.3888 12.13 
0.237 2.0 2.0 0.146 0.120 14.5405 12.2934 12.13 
0.238 2.0 2.0 0.120 0.127 15.0252 13.1288 12.13 
0.239 2.0 2.0 0.076 0.146 15.1940 14.0861 12.13 
0.240 2.0 2.0 0.095 0.120 15.1940 13.5227 12.13 
0.241 2.0 2.0 0.133 0.127 12.8788 12.8788 12.13 
0.242 2.0 2.0 0.127 0.108 13.9409 13.5227 12.13 
0.243 2.0 2.0 0.190 0.089 15.1940 13.6593 12.13 
0.244 2.0 2.0 0.177 0.114 15.3667 13.6593 12.13 
0.245 2.0 2.0 0.165 0.108 13.5227 13.7987 12.13 
0.246 2.0 2.0 0.158 0.114 14.6986 13.9409 12.13 
0.247 2.0 2.0 0.158 0.076 15.0252 13.7987 12.13 
0.248 2.0 2.0 0.158 0.070 14.8601 13.7987 12.13 
0.249 2.0 2.0 0.165 0.057 15.3667 13.5227 12.13 
0.250 2.0 2.0 0.139 0.101 15.0252 13.7987 12.13 
0.251 2.0 2.0 0.127 0.101 15.3667 13.1288 12.10 
0.252 2.0 2.0 0.101 0.101 14.8601 13.5227 12.10 
0.253 2.0 2.0 0.089 0.108 15.3667 13.6593 12.10 
0.254 2.0 2.0 0.095 0.108 15.0252 13.9409 12.10 
0.255 2.0 2.0 0.032 0.120 14.8601 12.8788 12.10 
0.256 2.0 2.0 0.146 0.082 15.1940 13.2575 12.13 
0.257 2.0 2.0 0.165 0.082 14.6986 13.6593 12.13 
0.258 2.0 2.0 0.158 0.101 15.1940 13.9409 12.13 
0.259 2.0 2.0 0.152 0.108 15.0252 13.3888 12.13 
0.260 2.0 2.0 0.152 0.089 15.3667 13.6593 12.13 
0.261 2.0 2.0 0.139 0.089 15.1940 14.0861 12.13 
0.262 2.0 2.0 0.146 0.095 15.3667 14.2344 12.13 
0.263 2.0 2.0 0.158 0.089 15.7241 13.5227 12.13 
0.264 2.0 2.0 0.139 0.095 15.3667 13.6593 12.13 
0.265 2.0 2.0 0.158 0.070 15.5433 13.3888 12.13 
0.266 2.0 2.0 0.101 0.082 15.0252 13.7987 12.15 
0.267 2.0 2.0 0.089 0.070 15.3667 13.1288 12.15 
0.268 2.0 2.0 0.095 0.101 15.0252 13.3888 12.15 
0.269 2.0 2.0 0.051 0.114 15.1940 13.5227 12.15 
0.270 2.0 2.0 0.127 0.114 15.1940 13.9409 12.15 
0.271 2.0 2.0 0.146 0.089 15.3667 14.0861 12.13 
0.272 2.0 2.0 0.152 0.095 15.5433 13.5227 12.13 
0.273 2.0 2.0 0.152 0.095 14.8601 13.0026 12.13 
0.274 2.0 2.0 0.146 0.108 15.3667 13.5227 12.13 
0.275 2.0 2.0 0.120 0.127 15.5433 13.6593 12.13 
0.276 2.0 2.0 0.127 0.114 15.7241 13.9409 12.09 
0.277 2.0 2.0 0.120 0.114 15.5433 14.0861 12.09 
0.278 2.0 2.0 0.120 0.120 15.3667 13.9409 12.09 
0.279 2.0 2.0 0.146 0.120 15.3667 13.7987 12.09 
0.280 2.0 2.0 0.152 0.114 14.6986 13.7987 12.09 
0.281 2.0 2.0 0.133 0.108 15.1940 14.0861 12.13 
0.282 2.0 2.0 0.076 0.133 15.3667 13.9409 12.13 
0.283 2.0 2.0 0.082 0.146 15.3667 13.5227 12.13 
0.284 2.0 2.0 0.120 0.127 13.0026 12.5210 12.13 
0.285 2.0 2.0 0.133 0.152 14.2344 13.3888 12.13 
0.286 2.0 2.0 0.190 0.114 15.5433 14.3858 12.12 
0.287 2.0 2.0 0.165 0.120 14.5405 14.0861 12.12 
0.288 2.0 2.0 0.152 0.101 15.1940 13.1288 12.12 
0.289 2.0 2.0 0.139 0.101 15.0252 13.6593 12.12 
0.290 2.0 2.0 0.146 0.114 15.3667 13.7987 12.12 
0.291 2.0 2.0 0.165 0.101 15.1940 13.7987 12.13 
0.292 2.0 2.0 0.158 0.108 15.5433 14.0861 12.13 
0.293 2.0 2.0 0.152 0.095 15.1940 14.2344 12.13 
0.294 2.0 2.0 0.120 0.063 15.5433 14.0861 12.13 
0.295 2.0 2.0 0.076 0.082 15.3667 14.0861 12.13 
0.296 2.0 2.0 0.076 0.057 15.0252 13.9409 12.13 
0.297 2.0 2.0 0.089 0.070 15.1940 14.0861 12.13 
0.298 2.0 2.0 0.127 0.089 14.8601 13.2575 12.13 
0.299 2.0 2.0 0.139 0.095 15.3667 13.5227 12.13 
0.300 2.0 2.0 0.165 0.114 14.8601 13.6593 12.13 
0.301 2.0 2.0 0.146 0.127 15.1940 13.9409 12.07 
0.302 2.0 2.0 0.146 0.120 15.1940 12.8788 12.07 
0.303 2.0 2.0 0.152 0.101 15.3667 13.3888 12.07 
0.304 2.0 2.0 0.152 0.101 15.5433 13.6593 12.07 
0.305 2.0 2.0 0.152 0.101 15.5433 14.0861 12.07 
0.306 2.0 2.0 0.158 0.095 15.7241 13.5227 12.13 
0.307 2.0 2.0 0.139 0.120 15.3667 13.6593 12.13 
0.308 2.0 2.0 0.152 0.101 15.5433 14.0861 12.13 
0.309 2.0 2.0 0.095 0.114 15.0252 14.2344 12.13 
0.310 2.0 2.0 0.076 0.114 15.5433 13.5227 12.13 
0.311 2.0 2.0 0.114 0.101 15.3667 13.6593 12.10 
0.312 2.0 2.0 0.127 0.095 15.1940 13.3888 12.10 
0.313 2.0 2.0 0.146 0.076 15.5433 13.7987 12.10 
0.314 2.0 2.0 0.184 0.070 15.5433 13.2575 12.10 
0.315 2.0 2.0 0.139 0.089 15.7241 13.5227 12.10 
0.316 2.0 2.0 0.127 0.127 15.0252 13.6593 12.15 
0.317 2.0 2.0 0.127 0.101 15.5433 14.2344 12.15 
0.318 2.0 2.0 0.114 0.038 15.7241 14.0861 12.15 
0.319 2.0 2.0 0.108 0.114 15.5433 13.2575 12.15 
0.320 2.0 2.0 0.127 0.095 15.7241 13.7987 12.15 
0.321 2.0 2.0 0.127 0.063 15.5433 13.9409 12.13 
0.322 2.0 2.0 0.158 0.101 15.7241 13.9409 12.13 
0.323 2.0 2.0 0.139 0.095 15.0252 14.2344 12.13 
0.324 2.0 2.0 0.101 0.101 15.5433 14.3858 12.13 
0.325 2.0 2.0 0.089 0.120 15.7241 14.0861 12.13 
0.326 2.0 2.0 0.114 0.127 13.2575 13.9409 12.13 
0.327 2.0 2.0 0.127 0.108 14.3858 14.0861 12.13 
0.328 2.0 2.0 0.165 0.101 15.7241 14.2344 12.13 
0.329 2.0 2.0 0.171 0.108 15.7241 14.0861 12.13 
0.330 2.0 2.0 0.171 0.120 14.8601 13.9409 12.13 
0.331 2.0 2.0 0.158 0.127 15.3667 12.4061 12.13 
0.332 2.0 2.0 0.127 0.165 15.3667 13.2575 12.13 
0.333 2.0 2.0 0.114 0.146 15.3667 14.2344 12.13 
0.334 2.0 2.0 0.127 0.139 15.7241 14.0861 12.13 
0.335 2.0 2.0 0.127 0.114 15.1940 13.0026 12.13 
0.336 2.0 2.0 0.133 0.108 15.5433 13.6593 12.09 
0.337 2.0 2.0 0.127 0.089 15.0252 13.6593 12.09 
0.338 2.0 2.0 0.089 0.108 15.3667 13.7987 12.09 
0.339 2.0 2.0 0.108 0.095 15.0252 13.9409 12.09 
0.340 2.0 2.0 0.108 0.108 15.1940 14.2344 12.09 
0.341 2.0 2.0 0.146 0.082 15.1940 13.9409 12.13 
0.342 2.0 2.0 0.152 0.089 14.8601 13.9409 12.13 
0.343 2.0 2.0 0.165 0.025 15.1940 13.7987 12.13 
0.344 2.0 2.0 0.152 0.076 15.0252 14.0861 12.13 
0.345 2.0 2.0 0.152 0.082 15.3667 13.2575 12.13 
0.346 2.0 2.0 0.152 0.089 15.1940 13.5227 12.09 
0.347 2.0 2.0 0.133 0.133 15.3667 13.7987 12.09 
0.348 2.0 2.0 0.152 0.108 15.5433 14.0861 12.09 
0.349 2.0 2.0 0.139 0.101 15.3667 13.0026 12.09 
0.350 2.0 2.0 0.171 0.089 15.5433 13.5227 12.09 
0.351 2.0 2.0 0.114 0.108 15.0252 13.9409 12.13 
0.352 2.0 2.0 0.108 0.095 15.3667 14.2344 12.13 
0.353 2.0 2.0 0.101 0.120 15.0252 13.9409 12.13 
0.354 2.0 2.0 0.127 0.089 15.3667 14.3858 12.13 
0.355 2.0 2.0 0.139 0.095 15.1940 14.5405 12.13 
0.356 2.0 2.0 0.165 0.108 15.5433 13.5227 12.12 
0.357 2.0 2.0 0.177 0.082 15.7241 13.7987 12.12 
0.358 2.0 2.0 0.165 0.076 15.0252 13.7987 12.12 
0.359 2.0 2.0 0.139 0.063 15.5433 14.0861 12.12 
0.360 2.0 2.0 0.114 0.089 15.7241 13.3888 12.12 
0.361 2.0 2.0 0.114 0.070 15.7241 13.6593 12.13 
0.362 2.0 2.0 0.108 0.114 15.5433 13.7987 12.13 
0.363 2.0 2.0 0.108 0.133 15.7241 14.2344 12.13 
0.364 2.0 2.0 0.146 0.089 15.9091 14.3858 12.13 
0.365 2.0 2.0 0.139 0.076 15.0252 14.0861 12.13 
0.366 2.0 2.0 0.108 0.082 15.5433 13.2575 12.13 
0.367 2.0 2.0 0.070 0.120 15.7241 13.7987 12.13 
0.368 2.0 2.0 0.076 0.127 15.9091 13.9409 12.13 
0.369 2.0 2.0 0.101 0.133 13.3888 13.9409 12.13 
0.370 2.0 2.0 0.139 0.108 15.7241 14.2344 12.13 
0.371 2.0 2.0 0.177 0.101 15.9091 14.3858 12.12 
0.372 2.0 2.0 0.158 0.101 14.8601 14.0861 12.12 
0.373 2.0 2.0 0.133 0.120 15.5433 13.9409 12.12 
0.374 2.0 2.0 0.139 0.114 15.3667 14.0861 12.12 
0.375 2.0 2.0 0.133 0.133 15.7241 14.2344 12.12 
0.376 2.0 2.0 0.146 0.127 15.5433 14.0861 12.12 
0.377 2.0 2.0 0.139 0.108 15.5433 13.9409 12.12 
0.378 2.0 2.0 0.120 0.127 15.9091 12.6380 12.12 
0.379 2.0 2.0 0.114 0.108 15.3667 13.5227 12.12 
0.380 2.0 2.0 0.082 0.127 15.7241 14.5405 12.12 
0.381 2.0 2.0 0.082 0.120 15.3667 13.9409 12.12 
0.382 2.0 2.0 0.089 0.114 15.7241 13.2575 12.12 
0.383 2.0 2.0 0.127 0.089 15.3667 13.7987 12.12 
0.384 2.0 2.0 0.139 0.108 15.1940 13.9409 12.12 
0.385 2.0 2.0 0.146 0.120 15.5433 14.0861 12.12 
0.386 2.0 2.0 0.139 0.108 15.3667 14.3858 12.09 
0.387 2.0 2.0 0.133 0.108 15.9091 14.0861 12.09 
0.388 2.0 2.0 0.152 0.070 15.5433 13.9409 12.09 
0.389 2.0 2.0 0.146 0.070 15.7241 13.9409 12.09 
0.390 2.0 2.0 0.139 0.082 16.0984 14.0861 12.09 
0.391 2.0 2.0 0.139 0.095 15.7241 13.2575 12.09 
0.392 2.0 2.0 0.146 0.108 15.9091 13.5227 12.09 
0.393 2.0 2.0 0.133 0.108 15.3667 13.7987 12.09 
0.394 2.0 2.0 0.089 0.114 15.7241 14.0861 12.09 
0.395 2.0 2.0 0.114 0.114 15.3667 13.0026 12.09 
0.396 2.0 2.0 0.120 0.114 15.7241 13.5227 12.12 
0.397 2.0 2.0 0.139 0.095 15.9091 13.9409 12.12 
0.398 2.0 2.0 0.165 0.095 15.9091 14.2344 12.12 
0.399 2.0 2.0 0.158 0.108 16.0984 13.9409 12.12 
0.400 2.0 2.0 0.127 0.133 15.1940 13.9409 12.12 
0.401 4.0 4.0 0.133 0.114 15.5433 14.2344 12.13 
0.402 4.0 4.0 0.209 0.184 15.7241 14.3858 12.13 
0.403 4.0 4.0 0.374 0.355 15.7241 14.0861 12.13 
0.404 4.0 4.0 0.513 0.456 16.2924 14.2344 12.13 
0.405 4.0 4.0 0.576 0.526 16.2924 14.2344 12.13 
0.406 4.0 4.0 0.646 0.532 16.6947 15.0252 11.99 
0.407 4.0 4.0 0.532 0.576 16.2924 15.7241 11.99 
0.408 4.0 4.0 0.507 0.589 17.7930 16.0984 11.99 
0.409 4.0 4.0 0.519 0.576 18.0303 16.9034 11.99 
0.410 4.0 4.0 0.564 0.488 16.9034 17.5619 11.99 
0.411 4.0 4.0 0.633 0.500 19.3181 17.5619 12.01 
0.412 4.0 4.0 0.583 0.519 19.5981 18.2739 12.01 
0.413 4.0 4.0 0.570 0.538 19.5981 18.5242 12.01 
0.414 4.0 4.0 0.551 0.557 19.8863 19.0460 12.01 
0.415 4.0 4.0 0.570 0.469 20.1831 19.3181 12.01 
0.416 4.0 4.0 0.589 0.462 20.8041 19.5981 11.99 
0.417 4.0 4.0 0.532 0.481 21.1292 19.8863 11.99 
0.418 4.0 4.0 0.424 0.507 20.8041 20.4889 11.99 
0.419 4.0 4.0 0.424 0.519 21.1292 20.1831 11.99 
0.420 4.0 4.0 0.456 0.500 21.4646 21.1292 11.99 
0.421 4.0 4.0 0.488 0.456 22.1684 22.1684 11.98 
0.422 4.0 4.0 0.551 0.424 22.1684 21.4646 11.98 
0.423 4.0 4.0 0.488 0.437 22.9198 22.1684 11.98 
0.424 4.0 4.0 0.494 0.437 22.5378 22.9198 11.98 
0.425 4.0 4.0 0.494 0.412 23.7240 23.3150 11.98 
0.426 4.0 4.0 0.494 0.361 23.7240 23.3150 12.06 
0.427 4.0 4.0 0.494 0.348 23.3150 23.7240 12.06 
0.428 4.0 4.0 0.361 0.386 24.1477 23.3150 12.06 
0.429 4.0 4.0 0.386 0.399 24.5867 23.7240 12.06 
0.430 4.0 4.0 0.399 0.405 25.0420 23.3150 12.06 
0.431 4.0 4.0 0.475 0.367 25.5145 24.1477 12.01 
0.432 4.0 4.0 0.418 0.380 25.5145 24.1477 12.01 
0.433 4.0 4.0 0.399 0.386 26.0052 25.0420 12.01 
0.434 4.0 4.0 0.418 0.361 26.5151 25.5145 12.01 
0.435 4.0 4.0 0.443 0.323 26.0052 25.0420 12.01 
0.436 4.0 4.0 0.412 0.323 25.5145 25.5145 12.09 
0.437 4.0 4.0 0.310 0.367 27.0454 25.5145 12.09 
0.438 4.0 4.0 0.342 0.386 25.0420 26.0052 12.09 
0.439 4.0 4.0 0.405 0.304 26.5151 26.5151 12.09 
0.440 4.0 4.0 0.418 0.285 25.5145 26.5151 12.09 
0.441 4.0 4.0 0.380 0.317 26.5151 26.5151 12.07 
0.442 4.0 4.0 0.393 0.329 27.0454 27.5973 12.07 
0.443 4.0 4.0 0.405 0.285 27.0454 27.0454 12.07 
0.444 4.0 4.0 0.355 0.291 26.5151 27.5973 12.07 
0.445 4.0 4.0 0.304 0.291 26.5151 27.5973 12.07 
0.446 4.0 4.0 0.291 0.355 27.0454 27.0454 12.06 
0.447 4.0 4.0 0.336 0.304 27.0454 28.1723 12.06 
0.448 4.0 4.0 0.361 0.298 27.5973 28.1723 12.06 
0.449 4.0 4.0 0.348 0.279 27.5973 28.1723 12.06 
0.450 4.0 4.0 0.336 0.304 28.7717 28.7717 12.06 
0.451 4.0 4.0 0.393 0.241 29.3972 28.7717 12.07 
0.452 4.0 4.0 0.298 0.266 28.1723 28.7717 12.07 
0.453 4.0 4.0 0.279 0.272 29.3972 28.1723 12.07 
0.454 4.0 4.0 0.285 0.260 29.3972 28.7717 12.07 
0.455 4.0 4.0 0.329 0.291 29.3972 27.5973 12.07 
0.456 4.0 4.0 0.323 0.266 30.0504 28.7717 12.09 
0.457 4.0 4.0 0.310 0.260 30.0504 28.7717 12.09 
0.458 4.0 4.0 0.323 0.190 30.0504 29.3972 12.09 
0.459 4.0 4.0 0.355 0.203 28.7717 29.3972 12.09 
0.460 4.0 4.0 0.291 0.241 29.3972 29.3972 12.09 
0.461 4.0 4.0 0.272 0.266 27.5973 29.3972 12.09 
0.462 4.0 4.0 0.329 0.253 29.3972 30.0504 12.09 
0.463 4.0 4.0 0.317 0.222 28.1723 30.0504 12.09 
0.464 4.0 4.0 0.317 0.228 28.7717 30.0504 12.09 
0.465 4.0 4.0 0.329 0.260 30.0504 30.7334 12.09 
0.466 4.0 4.0 0.336 0.241 30.7334 30.7334 12.06 
0.467 4.0 4.0 0.241 0.247 30.7334 30.7334 12.06 
0.468 4.0 4.0 0.253 0.247 30.7334 30.7334 12.06 
0.469 4.0 4.0 0.260 0.272 31.4481 29.3972 12.06 
0.470 4.0 4.0 0.279 0.247 31.4481 30.0504 12.06 
0.471 4.0 4.0 0.291 0.234 31.4481 30.7334 12.10 
0.472 4.0 4.0 0.272 0.247 31.4481 30.7334 12.10 
0.473 4.0 4.0 0.317 0.190 31.4481 30.7334 12.10 
0.474 4.0 4.0 0.272 0.133 31.4481 30.7334 12.10 
0.475 4.0 4.0 0.241 0.209 31.4481 30.7334 12.10 
0.476 4.0 4.0 0.260 0.234 32.1969 30.7334 12.09 
0.477 4.0 4.0 0.285 0.247 31.4481 30.0504 12.09 
0.478 4.0 4.0 0.266 0.228 32.1969 30.7334 12.09 
0.479 4.0 4.0 0.260 0.234 32.1969 31.4481 12.09 
0.480 4.0 4.0 0.291 0.215 32.1969 30.7334 12.09 
0.481 4.0 4.0 0.266 0.234 32.1969 30.7334 12.10 
0.482 4.0 4.0 0.241 0.209 32.9822 30.7334 12.10 
0.483 4.0 4.0 0.266 0.228 32.1969 31.4481 12.10 
0.484 4.0 4.0 0.291 0.203 31.4481 31.4481 12.10 
0.485 4.0 4.0 0.279 0.196 32.1969 32.1969 12.10 
0.486 4.0 4.0 0.285 0.222 32.1969 32.1969 12.09 
0.487 4.0 4.0 0.310 0.203 32.1969 32.1969 12.09 
0.488 4.0 4.0 0.247 0.215 32.1969 32.1969 12.09 
0.489 4.0 4.0 0.234 0.209 32.1969 32.1969 12.09 
0.490 4.0 4.0 0.253 0.234 32.1969 31.4481 12.09 
0.491 4.0 4.0 0.272 0.234 32.1969 32.9822 12.07 
0.492 4.0 4.0 0.260 0.215 32.1969 32.1969 12.07 
0.493 4.0 4.0 0.253 0.215 32.9822 32.1969 12.07 
0.494 4.0 4.0 0.310 0.184 32.9822 32.1969 12.07 
0.495 4.0 4.0 0.234 0.190 31.4481 32.1969 12.07 
0.496 4.0 4.0 0.215 0.203 32.9822 32.1969 12.10 
0.497 4.0 4.0 0.285 0.209 32.9822 32.9822 12.10 
0.498 4.0 4.0 0.241 0.215 32.9822 32.1969 12.10 
0.499 4.0 4.0 0.234 0.209 32.9822 32.1969 12.10 
0.500 4.0 4.0 0.241 0.190 33.8067 32.9822 12.10 
0.501 4.0 4.0 0.266 0.203 32.9822 32.1969 12.04 
0.502 4.0 4.0 0.209 0.222 33.8067 32.1969 12.04 
0.503 4.0 4.0 0.222 0.184 32.9822 31.4481 12.04 
0.504 4.0 4.0 0.266 0.222 33.8067 32.1969 12.04 
0.505 4.0 4.0 0.253 0.196 32.9822 32.1969 12.04 
0.506 4.0 4.0 0.241 0.190 33.8067 32.1969 12.10 
0.507 4.0 4.0 0.298 0.190 33.8067 32.9822 12.10 
0.508 4.0 4.0 0.234 0.209 33.8067 32.9822 12.10 
0.509 4.0 4.0 0.190 0.222 33.8067 32.9822 12.10 
0.510 4.0 4.0 0.241 0.203 32.9822 32.9822 12.10 
0.511 4.0 4.0 0.253 0.234 32.9822 32.1969 12.10 
0.512 4.0 4.0 0.260 0.209 33.8067 32.1969 12.10 
0.513 4.0 4.0 0.253 0.203 33.8067 32.9822 12.10 
0.514 4.0 4.0 0.298 0.190 33.8067 32.9822 12.10 
0.515 4.0 4.0 0.234 0.177 32.9822 32.9822 12.10 
0.516 4.0 4.0 0.222 0.171 33.8067 32.9822 12.10 
0.517 4.0 4.0 0.260 0.203 34.6736 32.9822 12.10 
0.518 4.0 4.0 0.234 0.215 33.8067 32.1969 12.10 
0.519 4.0 4.0 0.215 0.203 34.6736 32.1969 12.10 
0.520 4.0 4.0 0.253 0.177 34.6736 32.9822 12.10 
0.521 4.0 4.0 0.253 0.209 33.8067 32.9822 12.10 
0.522 4.0 4.0 0.222 0.190 34.6736 32.9822 12.10 
0.523 4.0 4.0 0.228 0.165 34.6736 32.9822 12.10 
0.524 4.0 4.0 0.234 0.196 34.6736 32.9822 12.10 
0.525 4.0 4.0 0.234 0.177 34.6736 33.8067 12.10 
0.526 4.0 4.0 0.253 0.114 34.6736 33.8067 12.06 
0.527 4.0 4.0 0.279 0.158 34.6736 33.8067 12.06 
0.528 4.0 4.0 0.203 0.196 34.6736 33.8067 12.06 
0.529 4.0 4.0 0.203 0.203 34.6736 33.8067 12.06 
0.530 4.0 4.0 0.253 0.215 34.6736 33.8067 12.06 
0.531 4.0 4.0 0.222 0.215 34.6736 32.9822 12.09 
0.532 4.0 4.0 0.241 0.203 34.6736 33.8067 12.09 
0.533 4.0 4.0 0.260 0.190 34.6736 32.9822 12.09 
0.534 4.0 4.0 0.266 0.184 33.8067 32.9822 12.09 
0.535 4.0 4.0 0.196 0.196 33.8067 33.8067 12.09 
0.536 4.0 4.0 0.215 0.177 34.6736 33.8067 12.06 
0.537 4.0 4.0 0.241 0.190 33.8067 32.9822 12.06 
0.538 4.0 4.0 0.241 0.196 34.6736 32.9822 12.06 
0.539 4.0 4.0 0.234 0.209 34.6736 32.9822 12.06 
0.540 4.0 4.0 0.266 0.190 34.6736 33.8067 12.06 
0.541 4.0 4.0 0.222 0.196 34.6736 33.8067 12.06 
0.542 4.0 4.0 0.222 0.177 33.8067 33.8067 12.06 
0.543 4.0 4.0 0.253 0.177 35.5860 33.8067 12.06 
0.544 4.0 4.0 0.253 0.171 34.6736 32.9822 12.06 
0.545 4.0 4.0 0.234 0.190 34.6736 33.8067 12.06 
0.546 4.0 4.0 0.253 0.177 34.6736 33.8067 12.09 
0.547 4.0 4.0 0.222 0.177 35.5860 33.8067 12.09 
0.548 4.0 4.0 0.196 0.171 34.6736 33.8067 12.09 
0.549 4.0 4.0 0.215 0.184 34.6736 33.8067 12.09 
0.550 4.0 4.0 0.228 0.203 34.6736 33.8067 12.09 
0.551 4.0 4.0 0.234 0.215 35.5860 33.8067 12.10 
0.552 4.0 4.0 0.222 0.209 35.5860 34.6736 12.10 
0.553 4.0 4.0 0.260 0.184 34.6736 33.8067 12.10 
0.554 4.0 4.0 0.209 0.190 34.6736 33.8067 12.10 
0.555 4.0 4.0 0.209 0.177 34.6736 33.8067 12.10 
0.556 4.0 4.0 0.253 0.146 35.5860 33.8067 12.12 
0.557 4.0 4.0 0.234 0.158 35.5860 33.8067 12.12 
0.558 4.0 4.0 0.228 0.177 35.5860 30.0504 12.12 
0.559 4.0 4.0 0.253 0.177 35.5860 32.9822 12.12 
0.560 4.0 4.0 0.215 0.171 35.5860 33.8067 12.12 
0.561 4.0 4.0 0.190 0.190 33.8067 34.6736 12.10 
0.562 4.0 4.0 0.241 0.158 35.5860 33.8067 12.10 
0.563 4.0 4.0 0.215 0.177 35.5860 33.8067 12.10 
0.564 4.0 4.0 0.241 0.165 35.5860 33.8067 12.10 
0.565 4.0 4.0 0.247 0.165 35.5860 32.9822 12.10 
0.566 4.0 4.0 0.228 0.146 35.5860 34.6736 12.12 
0.567 4.0 4.0 0.190 0.158 35.5860 34.6736 12.12 
0.568 4.0 4.0 0.196 0.171 32.1969 34.6736 12.12 
0.569 4.0 4.0 0.222 0.177 34.6736 34.6736 12.12 
0.570 4.0 4.0 0.209 0.203 35.5860 34.6736 12.12 
0.571 4.0 4.0 0.222 0.196 35.5860 33.8067 12.10 
0.572 4.0 4.0 0.266 0.203 35.5860 33.8067 12.10 
0.573 4.0 4.0 0.196 0.177 35.5860 33.8067 12.10 
0.574 4.0 4.0 0.177 0.184 35.5860 33.8067 12.10 
0.575 4.0 4.0 0.222 0.177 35.5860 33.8067 12.10 
0.576 4.0 4.0 0.209 0.152 35.5860 33.8067 12.12 
0.577 4.0 4.0 0.215 0.158 35.5860 33.8067 12.12 
0.578 4.0 4.0 0.228 0.190 35.5860 32.9822 12.12 
0.579 4.0 4.0 0.203 0.196 35.5860 33.8067 12.12 
0.580 4.0 4.0 0.203 0.165 34.6736 33.8067 12.12 
0.581 4.0 4.0 0.247 0.177 35.5860 33.8067 12.07 
0.582 4.0 4.0 0.241 0.184 34.6736 33.8067 12.07 
0.583 4.0 4.0 0.222 0.171 34.6736 33.8067 12.07 
0.584 4.0 4.0 0.272 0.171 35.5860 33.8067 12.07 
0.585 4.0 4.0 0.234 0.165 34.6736 33.8067 12.07 
0.586 4.0 4.0 0.177 0.152 35.5860 33.8067 12.13 
0.587 4.0 4.0 0.184 0.184 33.8067 33.8067 12.13 
0.588 4.0 4.0 0.234 0.177 34.6736 32.9822 12.13 
0.589 4.0 4.0 0.215 0.196 35.5860 34.6736 12.13 
0.590 4.0 4.0 0.222 0.171 35.5860 34.6736 12.13 
0.591 4.0 4.0 0.260 0.171 34.6736 34.6736 12.10 
0.592 4.0 4.0 0.196 0.177 35.5860 33.8067 12.10 
0.593 4.0 4.0 0.215 0.165 35.5860 33.8067 12.10 
0.594 4.0 4.0 0.228 0.196 35.5860 33.8067 12.10 
0.595 4.0 4.0 0.209 0.114 35.5860 33.8067 12.10 
0.596 4.0 4.0 0.184 0.165 36.5478 33.8067 12.07 
0.597 4.0 4.0 0.234 0.184 36.5478 33.8067 12.07 
0.598 4.0 4.0 0.184 0.196 36.5478 32.9822 12.07 
0.599 4.0 4.0 0.203 0.165 34.6736 33.8067 12.07 
0.600 4.0 4.0 0.247 0.171 36.5478 34.6736 12.07 
0.601 4.0 4.0 0.234 0.171 35.5860 34.6736 12.06 
0.602 4.0 4.0 0.228 0.171 35.5860 34.6736 12.06 
0.603 4.0 4.0 0.253 0.165 34.6736 33.8067 12.06 
0.604 4.0 4.0 0.209 0.190 35.5860 34.6736 12.06 
0.605 4.0 4.0 0.184 0.165 35.5860 33.8067 12.06 
0.606 4.0 4.0 0.241 0.152 34.6736 34.6736 12.09 
0.607 4.0 4.0 0.228 0.184 34.6736 34.6736 12.09 
0.608 4.0 4.0 0.203 0.190 35.5860 34.6736 12.09 
0.609 4.0 4.0 0.203 0.190 35.5860 34.6736 12.09 
0.610 4.0 4.0 0.234 0.190 34.6736 33.8067 12.09 
0.611 4.0 4.0 0.215 0.184 35.5860 34.6736 12.06 
0.612 4.0 4.0 0.215 0.177 35.5860 34.6736 12.06 
0.613 4.0 4.0 0.247 0.184 34.6736 34.6736 12.06 
0.614 4.0 4.0 0.228 0.177 35.5860 34.6736 12.06 
0.615 4.0 4.0 0.203 0.108 36.5478 34.6736 12.06 
0.616 4.0 4.0 0.266 0.146 33.8067 34.6736 12.09 
0.617 4.0 4.0 0.203 0.177 35.5860 33.8067 12.09 
0.618 4.0 4.0 0.203 0.203 35.5860 33.8067 12.09 
0.619 4.0 4.0 0.241 0.158 36.5478 33.8067 12.09 
0.620 4.0 4.0 0.209 0.190 35.5860 34.6736 12.09 
0.621 4.0 4.0 0.209 0.171 35.5860 33.8067 12.10 
0.622 4.0 4.0 0.241 0.158 36.5478 33.8067 12.10 
0.623 4.0 4.0 0.177 0.184 36.5478 33.8067 12.10 
0.624 4.0 4.0 0.152 0.171 35.5860 34.6736 12.10 
0.625 4.0 4.0 0.247 0.146 35.5860 34.6736 12.10 
0.626 4.0 4.0 0.228 0.171 36.5478 34.6736 12.10 
0.627 4.0 4.0 0.209 0.165 36.5478 34.6736 12.10 
0.628 4.0 4.0 0.222 0.196 36.5478 34.6736 12.10 
0.629 4.0 4.0 0.196 0.184 35.5860 34.6736 12.10 
0.630 4.0 4.0 0.209 0.133 35.5860 35.5860 12.10 
0.631 4.0 4.0 0.234 0.171 35.5860 34.6736 12.09 
0.632 4.0 4.0 0.247 0.171 35.5860 34.6736 12.09 
0.633 4.0 4.0 0.215 0.190 35.5860 34.6736 12.09 
0.634 4.0 4.0 0.215 0.171 35.5860 34.6736 12.09 
0.635 4.0 4.0 0.247 0.139 34.6736 34.6736 12.09 
0.636 4.0 4.0 0.203 0.158 35.5860 34.6736 12.12 
0.637 4.0 4.0 0.196 0.203 35.5860 33.8067 12.12 
0.638 4.0 4.0 0.241 0.165 35.5860 34.6736 12.12 
0.639 4.0 4.0 0.241 0.184 35.5860 35.5860 12.12 
0.640 4.0 4.0 0.222 0.171 36.5478 34.6736 12.12 
0.641 4.0 4.0 0.228 0.165 35.5860 34.6736 12.06 
0.642 4.0 4.0 0.190 0.165 35.5860 34.6736 12.06 
0.643 4.0 4.0 0.190 0.165 36.5478 34.6736 12.06 
0.644 4.0 4.0 0.234 0.158 36.5478 34.6736 12.06 
0.645 4.0 4.0 0.196 0.165 36.5478 34.6736 12.06 
0.646 4.0 4.0 0.184 0.165 36.5478 34.6736 12.07 
0.647 4.0 4.0 0.241 0.190 36.5478 34.6736 12.07 
0.648 4.0 4.0 0.184 0.184 35.5860 34.6736 12.07 
0.649 4.0 4.0 0.196 0.190 36.5478 33.8067 12.07 
0.650 4.0 4.0 0.234 0.190 36.5478 34.6736 12.07 
0.651 4.0 4.0 0.209 0.196 35.5860 34.6736 12.06 
0.652 4.0 4.0 0.196 0.184 36.5478 34.6736 12.06 
0.653 4.0 4.0 0.228 0.171 36.5478 34.6736 12.06 
0.654 4.0 4.0 0.196 0.165 36.5478 34.6736 12.06 
0.655 4.0 4.0 0.184 0.171 34.6736 33.8067 12.06 
0.656 4.0 4.0 0.247 0.171 36.5478 33.8067 12.07 
0.657 4.0 4.0 0.222 0.196 35.5860 33.8067 12.07 
0.658 4.0 4.0 0.209 0.190 34.6736 34.6736 12.07 
0.659 4.0 4.0 0.222 0.196 35.5860 34.6736 12.07 
0.660 4.0 4.0 0.222 0.177 36.5478 34.6736 12.07 
0.661 4.0 4.0 0.171 0.184 36.5478 33.8067 12.12 
0.662 4.0 4.0 0.203 0.171 35.5860 34.6736 12.12 
0.663 4.0 4.0 0.222 0.165 35.5860 34.6736 12.12 
0.664 4.0 4.0 0.222 0.152 36.5478 34.6736 12.12 
0.665 4.0 4.0 0.228 0.152 36.5478 34.6736 12.12 
0.666 4.0 4.0 0.241 0.158 35.5860 34.6736 12.10 
0.667 4.0 4.0 0.196 0.171 36.5478 34.6736 12.10 
0.668 4.0 4.0 0.215 0.177 36.5478 34.6736 12.10 
0.669 4.0 4.0 0.209 0.209 35.5860 35.5860 12.10 
0.670 4.0 4.0 0.209 0.177 36.5478 34.6736 12.10 
0.671 4.0 4.0 0.203 0.165 36.5478 34.6736 12.07 
0.672 4.0 4.0 0.241 0.158 35.5860 34.6736 12.07 
0.673 4.0 4.0 0.177 0.171 36.5478 34.6736 12.07 
0.674 4.0 4.0 0.196 0.139 36.5478 34.6736 12.07 
0.675 4.0 4.0 0.215 0.171 36.5478 34.6736 12.07 
0.676 4.0 4.0 0.196 0.203 36.5478 33.8067 12.06 
0.677 4.0 4.0 0.222 0.177 36.5478 34.6736 12.06 
0.678 4.0 4.0 0.247 0.165 35.5860 34.6736 12.06 
0.679 4.0 4.0 0.171 0.209 35.5860 34.6736 12.06 
0.680 4.0 4.0 0.184 0.184 35.5860 34.6736 12.06 
0.681 4.0 4.0 0.241 0.184 35.5860 33.8067 12.10 
0.682 4.0 4.0 0.196 0.196 35.5860 34.6736 12.10 
0.683 4.0 4.0 0.196 0.158 36.5478 34.6736 12.10 
0.684 4.0 4.0 0.253 0.152 36.5478 34.6736 12.10 
0.685 4.0 4.0 0.184 0.190 36.5478 32.9822 12.10 
0.686 4.0 4.0 0.203 0.196 36.5478 34.6736 12.10 
0.687 4.0 4.0 0.234 0.177 36.5478 33.8067 12.10 
0.688 4.0 4.0 0.215 0.209 36.5478 34.6736 12.10 
0.689 4.0 4.0 0.203 0.190 36.5478 35.5860 12.10 
0.690 4.0 4.0 0.209 0.190 36.5478 34.6736 12.10 
0.691 4.0 4.0 0.215 0.165 36.5478 34.6736 12.12 
0.692 4.0 4.0 0.190 0.152 35.5860 34.6736 12.12 
0.693 4.0 4.0 0.209 0.152 37.5630 34.6736 12.12 
0.694 4.0 4.0 0.222 0.165 36.5478 33.8067 12.12 
0.695 4.0 4.0 0.209 0.177 36.5478 33.8067 12.12 
0.696 4.0 4.0 0.222 0.171 36.5478 34.6736 12.06 
0.697 4.0 4.0 0.196 0.171 36.5478 34.6736 12.06 
0.698 4.0 4.0 0.146 0.184 36.5478 34.6736 12.06 
0.699 4.0 4.0 0.222 0.184 35.5860 34.6736 12.06 
0.700 4.0 4.0 0.215 0.190 36.5478 34.6736 12.06 
0.701 4.0 4.0 0.190 0.196 36.5478 34.6736 12.10 
0.702 4.0 4.0 0.215 0.152 36.5478 34.6736 12.10 
0.703 4.0 4.0 0.241 0.146 35.5860 34.6736 12.10 
0.704 4.0 4.0 0.215 0.165 35.5860 35.5860 12.10 
0.705 4.0 4.0 0.215 0.165 34.6736 35.5860 12.10 
0.706 4.0 4.0 0.222 0.190 35.5860 35.5860 12.10 
0.707 4.0 4.0 0.209 0.184 36.5478 34.6736 12.10 
0.708 4.0 4.0 0.215 0.184 36.5478 35.5860 12.10 
0.709 4.0 4.0 0.247 0.184 35.5860 34.6736 12.10 
0.710 4.0 4.0 0.190 0.171 36.5478 34.6736 12.10 
0.711 4.0 4.0 0.190 0.165 36.5478 34.6736 12.10 
0.712 4.0 4.0 0.228 0.152 36.5478 34.6736 12.10 
0.713 4.0 4.0 0.215 0.114 36.5478 34.6736 12.10 
0.714 4.0 4.0 0.184 0.165 37.5630 33.8067 12.10 
0.715 4.0 4.0 0.241 0.165 36.5478 33.8067 12.10 
0.716 4.0 4.0 0.177 0.177 36.5478 34.6736 12.12 
0.717 4.0 4.0 0.190 0.196 36.5478 35.5860 12.12 
0.718 4.0 4.0 0.215 0.177 36.5478 34.6736 12.12 
0.719 4.0 4.0 0.228 0.158 36.5478 34.6736 12.12 
0.720 4.0 4.0 0.209 0.158 36.5478 34.6736 12.12 
0.721 4.0 4.0 0.241 0.165 36.5478 35.5860 12.09 
0.722 4.0 4.0 0.177 0.171 36.5478 34.6736 12.09 
0.723 4.0 4.0 0.190 0.171 36.5478 34.6736 12.09 
0.724 4.0 4.0 0.234 0.184 36.5478 33.8067 12.09 
0.725 4.0 4.0 0.215 0.184 36.5478 34.6736 12.09 
0.726 4.0 4.0 0.184 0.184 36.5478 31.4481 12.09 
0.727 4.0 4.0 0.234 0.190 36.5478 35.5860 12.09 
0.728 4.0 4.0 0.215 0.196 36.5478 34.6736 12.09 
0.729 4.0 4.0 0.196 0.171 35.5860 34.6736 12.09 
0.730 4.0 4.0 0.228 0.165 37.5630 33.8067 12.09 
0.731 4.0 4.0 0.234 0.146 36.5478 34.6736 12.09 
0.732 4.0 4.0 0.222 0.139 36.5478 34.6736 12.09 
0.733 4.0 4.0 0.247 0.177 36.5478 34.6736 12.09 
0.734 4.0 4.0 0.190 0.196 36.5478 33.8067 12.09 
0.735 4.0 4.0 0.152 0.190 36.5478 34.6736 12.09 
0.736 4.0 4.0 0.215 0.171 35.5860 35.5860 12.09 
0.737 4.0 4.0 0.222 0.165 36.5478 34.6736 12.09 
0.738 4.0 4.0 0.196 0.177 36.5478 34.6736 12.09 
0.739 4.0 4.0 0.222 0.171 36.5478 34.6736 12.09 
0.740 4.0 4.0 0.228 0.165 36.5478 35.5860 12.09 
0.741 4.0 4.0 0.184 0.165 36.5478 35.5860 12.12 
0.742 4.0 4.0 0.228 0.165 36.5478 35.5860 12.12 
0.743 4.0 4.0 0.234 0.196 36.5478 35.5860 12.12 
0.744 4.0 4.0 0.190 0.196 36.5478 35.5860 12.12 
0.745 4.0 4.0 0.209 0.171 36.5478 35.5860 12.12 
0.746 4.0 4.0 0.215 0.184 36.5478 36.5478 12.07 
0.747 4.0 4.0 0.177 0.184 36.5478 35.5860 12.07 
0.748 4.0 4.0 0.196 0.184 37.5630 34.6736 12.07 
0.749 4.0 4.0 0.215 0.184 36.5478 35.5860 12.07 
0.750 4.0 4.0 0.190 0.171 36.5478 35.5860 12.07 
0.751 4.0 4.0 0.203 0.158 36.5478 34.6736 12.15 
0.752 4.0 4.0 0.222 0.152 36.5478 34.6736 12.15 
0.753 4.0 4.0 0.158 0.177 36.5478 33.8067 12.15 
0.754 4.0 4.0 0.203 0.152 36.5478 33.8067 12.15 
0.755 4.0 4.0 0.203 0.171 36.5478 35.5860 12.15 
0.756 4.0 4.0 0.215 0.165 36.5478 34.6736 12.10 
0.757 4.0 4.0 0.209 0.165 36.5478 34.6736 12.10 
0.758 4.0 4.0 0.228 0.171 36.5478 34.6736 12.10 
0.759 4.0 4.0 0.190 0.165 36.5478 34.6736 12.10 
0.760 4.0 4.0 0.203 0.152 36.5478 34.6736 12.10 
0.761 4.0 4.0 0.234 0.165 35.5860 34.6736 12.10 
0.762 4.0 4.0 0.215 0.177 36.5478 33.8067 12.10 
0.763 4.0 4.0 0.190 0.184 37.5630 35.5860 12.10 
0.764 4.0 4.0 0.228 0.171 36.5478 33.8067 12.10 
0.765 4.0 4.0 0.196 0.190 36.5478 35.5860 12.10 
0.766 4.0 4.0 0.165 0.196 35.5860 35.5860 12.10 
0.767 4.0 4.0 0.215 0.165 35.5860 35.5860 12.10 
0.768 4.0 4.0 0.203 0.190 35.5860 35.5860 12.10 
0.769 4.0 4.0 0.203 0.165 36.5478 35.5860 12.10 
0.770 4.0 4.0 0.247 0.139 36.5478 32.9822 12.10 
0.771 4.0 4.0 0.190 0.165 36.5478 34.6736 12.10 
0.772 4.0 4.0 0.196 0.177 36.5478 33.8067 12.10 
0.773 4.0 4.0 0.241 0.177 36.5478 34.6736 12.10 
0.774 4.0 4.0 0.215 0.165 36.5478 35.5860 12.10 
0.775 4.0 4.0 0.203 0.165 36.5478 34.6736 12.10 
0.776 4.0 4.0 0.241 0.158 36.5478 35.5860 12.07 
0.777 4.0 4.0 0.190 0.165 33.8067 34.6736 12.07 
0.778 4.0 4.0 0.184 0.190 36.5478 35.5860 12.07 
0.779 4.0 4.0 0.234 0.152 36.5478 35.5860 12.07 
0.780 4.0 4.0 0.222 0.171 36.5478 35.5860 12.07 
0.781 4.0 4.0 0.184 0.158 36.5478 35.5860 12.10 
0.782 4.0 4.0 0.203 0.184 37.5630 35.5860 12.10 
0.783 4.0 4.0 0.177 0.184 37.5630 35.5860 12.10 
0.784 4.0 4.0 0.177 0.165 36.5478 35.5860 12.10 
0.785 4.0 4.0 0.222 0.196 37.5630 36.5478 12.10 
0.786 4.0 4.0 0.215 0.127 36.5478 35.5860 12.07 
0.787 4.0 4.0 0.190 0.184 36.5478 35.5860 12.07 
0.788 4.0 4.0 0.241 0.171 36.5478 35.5860 12.07 
0.789 4.0 4.0 0.209 0.146 36.5478 35.5860 12.07 
0.790 4.0 4.0 0.184 0.152 36.5478 34.6736 12.07 
0.791 4.0 4.0 0.234 0.171 35.5860 34.6736 12.10 
0.792 4.0 4.0 0.228 0.158 36.5478 34.6736 12.10 
0.793 4.0 4.0 0.203 0.165 36.5478 34.6736 12.10 
0.794 4.0 4.0 0.234 0.152 36.5478 35.5860 12.10 
0.795 4.0 4.0 0.234 0.158 36.5478 34.6736 12.10 
0.796 4.0 4.0 0.190 0.152 36.5478 34.6736 12.10 
0.797 4.0 4.0 0.222 0.171 36.5478 35.5860 12.10 
0.798 4.0 4.0 0.228 0.158 36.5478 35.5860 12.10 
0.799 4.0 4.0 0.196 0.158 36.5478 35.5860 12.10 
0.800 4.0 4.0 0.215 0.165 37.5630 35.5860 12.10 
0.801 4.0 4.0 0.228 0.190 37.5630 34.6736 12.07 
0.802 4.0 4.0 0.171 0.184 37.5630 35.5860 12.07 
0.803 4.0 4.0 0.203 0.171 37.5630 34.6736 12.07 
0.804 4.0 4.0 0.196 0.196 36.5478 36.5478 12.07 
0.805 4.0 4.0 0.203 0.171 36.5478 34.6736 12.07 
0.806 4.0 4.0 0.203 0.184 37.5630 35.5860 12.06 
0.807 4.0 4.0 0.222 0.108 37.5630 35.5860 12.06 
0.808 4.0 4.0 0.165 0.171 37.5630 35.5860 12.06 
0.809 4.0 4.0 0.203 0.152 36.5478 35.5860 12.06 
0.810 4.0 4.0 0.209 0.184 36.5478 34.6736 12.06 
0.811 4.0 4.0 0.190 0.184 36.5478 35.5860 12.06 
0.812 4.0 4.0 0.184 0.184 36.5478 35.5860 12.06 
0.813 4.0 4.0 0.234 0.171 35.5860 35.5860 12.06 
0.814 4.0 4.0 0.177 0.196 36.5478 35.5860 12.06 
0.815 4.0 4.0 0.196 0.171 36.5478 34.6736 12.06 
0.816 4.0 4.0 0.241 0.190 35.5860 35.5860 12.10 
0.817 4.0 4.0 0.222 0.158 36.5478 35.5860 12.10 
0.818 4.0 4.0 0.190 0.165 37.5630 35.5860 12.10 
0.819 4.0 4.0 0.260 0.177 36.5478 35.5860 12.10 
0.820 4.0 4.0 0.190 0.171 36.5478 35.5860 12.10 
0.821 4.0 4.0 0.177 0.171 36.5478 35.5860 12.10 
0.822 4.0 4.0 0.222 0.171 36.5478 34.6736 12.10 
0.823 4.0 4.0 0.203 0.177 37.5630 36.5478 12.10 
0.824 4.0 4.0 0.222 0.165 37.5630 35.5860 12.10 
0.825 4.0 4.0 0.241 0.177 36.5478 35.5860 12.10 
0.826 4.0 4.0 0.184 0.152 37.5630 35.5860 12.07 
0.827 4.0 4.0 0.165 0.146 37.5630 35.5860 12.07 
0.828 4.0 4.0 0.203 0.165 35.5860 34.6736 12.07 
0.829 4.0 4.0 0.228 0.171 36.5478 33.8067 12.07 
0.830 4.0 4.0 0.184 0.196 37.5630 34.6736 12.07 
0.831 4.0 4.0 0.253 0.146 37.5630 34.6736 12.10 
0.832 4.0 4.0 0.190 0.158 36.5478 34.6736 12.10 
0.833 4.0 4.0 0.196 0.158 36.5478 34.6736 12.10 
0.834 4.0 4.0 0.234 0.095 36.5478 34.6736 12.10 
0.835 4.0 4.0 0.196 0.196 36.5478 35.5860 12.10 
0.836 4.0 4.0 0.209 0.165 37.5630 33.8067 12.12 
0.837 4.0 4.0 0.247 0.146 37.5630 35.5860 12.12 
0.838 4.0 4.0 0.203 0.165 36.5478 35.5860 12.12 
0.839 4.0 4.0 0.190 0.177 35.5860 35.5860 12.12 
0.840 4.0 4.0 0.228 0.190 37.5630 35.5860 12.12 
0.841 4.0 4.0 0.215 0.165 36.5478 34.6736 12.10 
0.842 4.0 4.0 0.165 0.203 36.5478 36.5478 12.10 
0.843 4.0 4.0 0.222 0.184 36.5478 35.5860 12.10 
0.844 4.0 4.0 0.177 0.177 36.5478 35.5860 12.10 
0.845 4.0 4.0 0.152 0.177 36.5478 35.5860 12.10 
0.846 4.0 4.0 0.241 0.133 36.5478 35.5860 12.10 
0.847 4.0 4.0 0.203 0.158 36.5478 34.6736 12.10 
0.848 4.0 4.0 0.209 0.177 36.5478 33.8067 12.10 
0.849 4.0 4.0 0.247 0.165 37.5630 34.6736 12.10 
0.850 4.0 4.0 0.196 0.165 35.5860 35.5860 12.10 
0.851 4.0 4.0 0.184 0.158 36.5478 35.5860 12.10 
0.852 4.0 4.0 0.222 0.184 36.5478 34.6736 12.10 
0.853 4.0 4.0 0.203 0.177 36.5478 34.6736 12.10 
0.854 4.0 4.0 0.203 0.165 36.5478 34.6736 12.10 
0.855 4.0 4.0 0.209 0.165 37.5630 35.5860 12.10 
0.856 4.0 4.0 0.209 0.146 36.5478 35.5860 12.06 
0.857 4.0 4.0 0.158 0.177 35.5860 35.5860 12.06 
0.858 4.0 4.0 0.222 0.190 37.5630 35.5860 12.06 
0.859 4.0 4.0 0.228 0.177 36.5478 35.5860 12.06 
0.860 4.0 4.0 0.209 0.177 37.5630 34.6736 12.06 
0.861 4.0 4.0 0.203 0.203 37.5630 36.5478 12.10 
0.862 4.0 4.0 0.184 0.165 37.5630 35.5860 12.10 
0.863 4.0 4.0 0.190 0.165 37.5630 35.5860 12.10 
0.864 4.0 4.0 0.196 0.171 36.5478 35.5860 12.10 
0.865 4.0 4.0 0.228 0.152 37.5630 35.5860 12.10 
0.866 4.0 4.0 0.177 0.165 37.5630 35.5860 12.10 
0.867 4.0 4.0 0.209 0.152 37.5630 34.6736 12.10 
0.868 4.0 4.0 0.196 0.158 37.5630 35.5860 12.10 
0.869 4.0 4.0 0.190 0.158 36.5478 35.5860 12.10 
0.870 4.0 4.0 0.209 0.177 37.5630 36.5478 12.10 
0.871 4.0 4.0 0.215 0.158 36.5478 35.5860 12.07 
0.872 4.0 4.0 0.196 0.152 36.5478 34.6736 12.07 
0.873 4.0 4.0 0.196 0.196 36.5478 35.5860 12.07 
0.874 4.0 4.0 0.190 0.165 36.5478 35.5860 12.07 
0.875 4.0 4.0 0.171 0.108 36.5478 35.5860 12.07 
0.876 4.0 4.0 0.222 0.171 37.5630 35.5860 12.07 
0.877 4.0 4.0 0.209 0.196 37.5630 35.5860 12.07 
0.878 4.0 4.0 0.209 0.184 37.5630 35.5860 12.07 
0.879 4.0 4.0 0.228 0.165 37.5630 34.6736 12.07 
0.880 4.0 4.0 0.184 0.190 37.5630 36.5478 12.07 
0.881 4.0 4.0 0.165 0.177 37.5630 35.5860 12.10 
0.882 4.0 4.0 0.171 0.177 36.5478 35.5860 12.10 
0.883 4.0 4.0 0.203 0.165 36.5478 35.5860 12.10 
0.884 4.0 4.0 0.190 0.165 36.5478 35.5860 12.10 
0.885 4.0 4.0 0.222 0.139 36.5478 35.5860 12.10 
0.886 4.0 4.0 0.228 0.171 37.5630 34.6736 12.12 
0.887 4.0 4.0 0.177 0.171 36.5478 34.6736 12.12 
0.888 4.0 4.0 0.215 0.146 37.5630 35.5860 12.12 
0.889 4.0 4.0 0.222 0.146 37.5630 35.5860 12.12 
0.890 4.0 4.0 0.203 0.171 37.5630 35.5860 12.12 
0.891 4.0 4.0 0.209 0.152 37.5630 34.6736 12.10 
0.892 4.0 4.0 0.222 0.190 37.5630 35.5860 12.10 
0.893 4.0 4.0 0.177 0.158 37.5630 35.5860 12.10 
0.894 4.0 4.0 0.203 0.146 37.5630 35.5860 12.10 
0.895 4.0 4.0 0.228 0.165 37.5630 35.5860 12.10 
0.896 4.0 4.0 0.190 0.203 37.5630 35.5860 12.06 
0.897 4.0 4.0 0.196 0.165 37.5630 35.5860 12.06 
0.898 4.0 4.0 0.222 0.177 36.5478 34.6736 12.06 
0.899 4.0 4.0 0.184 0.190 37.5630 36.5478 12.06 
0.900 4.0 4.0 0.196 0.177 36.5478 35.5860 12.06 
0.901 4.0 4.0 0.228 0.177 36.5478 35.5860 12.06 
0.902 4.0 4.0 0.177 0.184 37.5630 35.5860 12.06 
0.903 4.0 4.0 0.215 0.158 37.5630 35.5860 12.06 
0.904 4.0 4.0 0.228 0.165 36.5478 34.6736 12.06 
0.905 4.0 4.0 0.184 0.184 36.5478 33.8067 12.06 
0.906 4.0 4.0 0.215 0.184 37.5630 34.6736 12.10 
0.907 4.0 4.0 0.234 0.158 36.5478 35.5860 12.10 
0.908 4.0 4.0 0.196 0.177 37.5630 35.5860 12.10 
0.909 4.0 4.0 0.196 0.158 37.5630 35.5860 12.10 
0.910 4.0 4.0 0.222 0.152 36.5478 35.5860 12.10 
0.911 4.0 4.0 0.184 0.165 37.5630 35.5860 12.07 
0.912 4.0 4.0 0.196 0.158 38.6363 35.5860 12.07 
0.913 4.0 4.0 0.222 0.152 37.5630 35.5860 12.07 
0.914 4.0 4.0 0.209 0.165 37.5630 36.5478 12.07 
0.915 4.0 4.0 0.203 0.165 37.5630 36.5478 12.07 
0.916 4.0 4.0 0.196 0.196 36.5478 36.5478 12.06 
0.917 4.0 4.0 0.152 0.203 36.5478 35.5860 12.06 
0.918 4.0 4.0 0.171 0.184 36.5478 36.5478 12.06 
0.919 4.0 4.0 0.234 0.165 36.5478 35.5860 12.06 
0.920 4.0 4.0 0.203 0.177 36.5478 35.5860 12.06 
0.921 4.0 4.0 0.203 0.158 37.5630 35.5860 12.10 
0.922 4.0 4.0 0.241 0.146 36.5478 35.5860 12.10 
0.923 4.0 4.0 0.196 0.146 36.5478 35.5860 12.10 
0.924 4.0 4.0 0.196 0.177 37.5630 34.6736 12.10 
0.925 4.0 4.0 0.234 0.158 36.5478 35.5860 12.10 
0.926 4.0 4.0 0.184 0.165 37.5630 35.5860 12.07 
0.927 4.0 4.0 0.228 0.152 37.5630 35.5860 12.07 
0.928 4.0 4.0 0.241 0.171 36.5478 35.5860 12.07 
0.929 4.0 4.0 0.165 0.165 36.5478 34.6736 12.07 
0.930 4.0 4.0 0.203 0.165 36.5478 35.5860 12.07 
0.931 4.0 4.0 0.228 0.158 36.5478 35.5860 12.10 
0.932 4.0 4.0 0.203 0.165 36.5478 35.5860 12.10 
0.933 4.0 4.0 0.215 0.101 37.5630 35.5860 12.10 
0.934 4.0 4.0 0.228 0.165 37.5630 35.5860 12.10 
0.935 4.0 4.0 0.177 0.165 37.5630 35.5860 12.10 
0.936 4.0 4.0 0.184 0.158 37.5630 34.6736 12.10 
0.937 4.0 4.0 0.209 0.196 36.5478 36.5478 12.10 
0.938 4.0 4.0 0.203 0.171 37.5630 34.6736 12.10 
0.939 4.0 4.0 0.177 0.190 37.5630 35.5860 12.10 
0.940 4.0 4.0 0.247 0.146 37.5630 35.5860 12.10 
0.941 4.0 4.0 0.196 0.139 36.5478 35.5860 12.06 
0.942 4.0 4.0 0.177 0.146 37.5630 35.5860 12.06 
0.943 4.0 4.0 0.247 0.165 36.5478 34.6736 12.06 
0.944 4.0 4.0 0.209 0.120 37.5630 35.5860 12.06 
0.945 4.0 4.0 0.209 0.152 37.5630 35.5860 12.06 
0.946 4.0 4.0 0.241 0.171 36.5478 35.5860 12.10 
0.947 4.0 4.0 0.196 0.152 37.5630 35.5860 12.10 
0.948 4.0 4.0 0.190 0.146 37.5630 34.6736 12.10 
0.949 4.0 4.0 0.190 0.177 37.5630 35.5860 12.10 
0.950 4.0 4.0 0.209 0.165 37.5630 35.5860 12.10 
0.951 4.0 4.0 0.184 0.165 37.5630 35.5860 12.07 
0.952 4.0 4.0 0.222 0.171 36.5478 35.5860 12.07 
0.953 4.0 4.0 0.152 0.190 37.5630 35.5860 12.07 
0.954 4.0 4.0 0.184 0.158 37.5630 35.5860 12.07 
0.955 4.0 4.0 0.222 0.171 36.5478 35.5860 12.07 
0.956 4.0 4.0 0.203 0.190 37.5630 36.5478 12.10 
0.957 4.0 4.0 0.190 0.190 37.5630 35.5860 12.10 
0.958 4.0 4.0 0.253 0.171 35.5860 35.5860 12.10 
0.959 4.0 4.0 0.190 0.165 37.5630 35.5860 12.10 
0.960 4.0 4.0 0.190 0.146 37.5630 35.5860 12.10 
0.961 4.0 4.0 0.228 0.139 34.6736 35.5860 12.10 
0.962 4.0 4.0 0.203 0.177 37.5630 34.6736 12.10 
0.963 4.0 4.0 0.196 0.158 37.5630 35.5860 12.10 
0.964 4.0 4.0 0.222 0.133 33.8067 35.5860 12.10 
0.965 4.0 4.0 0.171 0.139 37.5630 35.5860 12.10 
0.966 4.0 4.0 0.177 0.171 36.5478 35.5860 12.10 
0.967 4.0 4.0 0.234 0.158 35.5860 35.5860 12.10 
0.968 4.0 4.0 0.190 0.190 37.5630 35.5860 12.10 
0.969 4.0 4.0 0.209 0.152 37.5630 35.5860 12.10 
0.970 4.0 4.0 0.228 0.114 37.5630 35.5860 12.10 
0.971 4.0 4.0 0.196 0.152 37.5630 36.5478 12.10 
0.972 4.0 4.0 0.165 0.165 37.5630 36.5478 12.10 
0.973 4.0 4.0 0.228 0.171 36.5478 36.5478 12.10 
0.974 4.0 4.0 0.177 0.203 36.5478 35.5860 12.10 
0.975 4.0 4.0 0.196 0.184 37.5630 36.5478 12.10 
0.976 4.0 4.0 0.234 0.171 37.5630 35.5860 12.06 
0.977 4.0 4.0 0.171 0.165 36.5478 35.5860 12.06 
0.978 4.0 4.0 0.209 0.146 37.5630 35.5860 12.06 
0.979 4.0 4.0 0.215 0.171 37.5630 34.6736 12.06 
0.980 4.0 4.0 0.215 0.158 37.5630 34.6736 12.06 
0.981 4.0 4.0 0.184 0.203 37.5630 34.6736 12.10 
0.982 4.0 4.0 0.241 0.152 37.5630 35.5860 12.10 
0.983 4.0 4.0 0.196 0.158 37.5630 36.5478 12.10 
0.984 4.0 4.0 0.152 0.190 36.5478 35.5860 12.10 
0.985 4.0 4.0 0.228 0.165 37.5630 35.5860 12.10 
0.986 4.0 4.0 0.209 0.158 37.5630 34.6736 12.06 
0.987 4.0 4.0 0.203 0.196 37.5630 35.5860 12.06 
0.988 4.0 4.0 0.234 0.165 37.5630 35.5860 12.06 
0.989 4.0 4.0 0.190 0.152 37.5630 35.5860 12.06 
0.990 4.0 4.0 0.171 0.158 37.5630 35.5860 12.06 
0.991 4.0 4.0 0.222 0.190 37.5630 35.5860 12.10 
0.992 4.0 4.0 0.184 0.171 37.5630 35.5860 12.10 
0.993 4.0 4.0 0.171 0.184 37.5630 35.5860 12.10 
0.994 4.0 4.0 0.247 0.171 37.5630 35.5860 12.10 
0.995 4.0 4.0 0.184 0.184 37.5630 35.5860 12.10 
0.996 4.0 4.0 0.171 0.190 37.5630 35.5860 12.06 
0.997 4.0 4.0 0.234 0.152 37.5630 35.5860 12.06 
0.998 4.0 4.0 0.215 0.146 37.5630 35.5860 12.06 
0.999 4.0 4.0 0.203 0.203 37.5630 35.5860 12.06 
1.000 4.0 4.0 0.234 0.177 37.5630 34.6736 12.06 
1.001 4.0 4.0 0.190 0.165 37.5630 34.6736 12.07 
1.002 4.0 4.0 0.190 0.152 37.5630 35.5860 12.07 
1.003 4.0 4.0 0.234 0.158 38.6363 35.5860 12.07 
1.004 4.0 4.0 0.215 0.152 37.5630 35.5860 12.07 
1.005 4.0 4.0 0.203 0.101 37.5630 34.6736 12.07 
1.006 4.0 4.0 0.234 0.120 37.5630 35.5860 12.07 
1.007 4.0 4.0 0.196 0.158 37.5630 35.5860 12.07 
1.008 4.0 4.0 0.158 0.171 37.5630 35.5860 12.07 
1.009 4.0 4.0 0.228 0.165 36.5478 35.5860 12.07 
1.010 4.0 4.0 0.196 0.177 37.5630 35.5860 12.07 
1.011 4.0 4.0 0.177 0.190 37.5630 35.5860 12.10 
1.012 4.0 4.0 0.247 0.165 37.5630 35.5860 12.10 
1.013 4.0 4.0 0.184 0.177 37.5630 35.5860 12.10 
1.014 4.0 4.0 0.209 0.152 37.5630 35.5860 12.10 
1.015 4.0 4.0 0.234 0.152 37.5630 35.5860 12.10 
1.016 4.0 4.0 0.215 0.158 37.5630 35.5860 12.15 
1.017 4.0 4.0 0.190 0.133 37.5630 35.5860 12.15 
1.018 4.0 4.0 0.234 0.152 37.5630 35.5860 12.15 
1.019 4.0 4.0 0.177 0.158 37.5630 34.6736 12.15 
1.020 4.0 4.0 0.184 0.146 37.5630 35.5860 12.15 
1.021 4.0 4.0 0.228 0.146 34.6736 35.5860 12.10 
1.022 4.0 4.0 0.215 0.146 37.5630 35.5860 12.10 
1.023 4.0 4.0 0.196 0.165 37.5630 35.5860 12.10 
1.024 4.0 4.0 0.228 0.152 37.5630 35.5860 12.10 
1.025 4.0 4.0 0.165 0.171 37.5630 35.5860 12.10 
1.026 4.0 4.0 0.158 0.158 37.5630 36.5478 12.10 
1.027 4.0 4.0 0.222 0.171 36.5478 36.5478 12.10 
1.028 4.0 4.0 0.177 0.184 37.5630 36.5478 12.10 
1.029 4.0 4.0 0.177 0.184 37.5630 36.5478 12.10 
1.030 4.0 4.0 0.234 0.171 37.5630 36.5478 12.10 
1.031 4.0 4.0 0.203 0.165 36.5478 36.5478 12.10 
1.032 4.0 4.0 0.196 0.165 37.5630 35.5860 12.10 
1.033 4.0 4.0 0.222 0.171 36.5478 35.5860 12.10 
1.034 4.0 4.0 0.222 0.184 37.5630 35.5860 12.10 
1.035 4.0 4.0 0.196 0.146 37.5630 35.5860 12.10 
1.036 4.0 4.0 0.247 0.152 36.5478 35.5860 12.07 
1.037 4.0 4.0 0.190 0.165 37.5630 35.5860 12.07 
1.038 4.0 4.0 0.171 0.171 37.5630 35.5860 12.07 
1.039 4.0 4.0 0.228 0.152 33.8067 35.5860 12.07 
1.040 4.0 4.0 0.222 0.158 37.5630 36.5478 12.07 
1.041 4.0 4.0 0.196 0.171 37.5630 35.5860 12.12 
1.042 4.0 4.0 0.222 0.165 37.5630 34.6736 12.12 
1.043 4.0 4.0 0.152 0.171 37.5630 34.6736 12.12 
1.044 4.0 4.0 0.171 0.165 37.5630 35.5860 12.12 
1.045 4.0 4.0 0.228 0.146 36.5478 35.5860 12.12 
1.046 4.0 4.0 0.209 0.158 36.5478 36.5478 12.07 
1.047 4.0 4.0 0.184 0.177 37.5630 36.5478 12.07 
1.048 4.0 4.0 0.247 0.171 34.6736 36.5478 12.07 
1.049 4.0 4.0 0.196 0.165 36.5478 35.5860 12.07 
1.050 4.0 4.0 0.171 0.196 37.5630 37.5630 12.07 
1.051 4.0 4.0 0.234 0.203 36.5478 35.5860 12.10 
1.052 4.0 4.0 0.196 0.184 36.5478 35.5860 12.10 
1.053 4.0 4.0 0.196 0.165 37.5630 35.5860 12.10 
1.054 4.0 4.0 0.228 0.171 33.8067 35.5860 12.10 
1.055 4.0 4.0 0.177 0.165 37.5630 35.5860 12.10 
1.056 4.0 4.0 0.190 0.158 36.5478 34.6736 12.10 
1.057 4.0 4.0 0.203 0.184 34.6736 35.5860 12.10 
1.058 4.0 4.0 0.203 0.165 37.5630 35.5860 12.10 
1.059 4.0 4.0 0.215 0.184 37.5630 36.5478 12.10 
1.060 4.0 4.0 0.234 0.152 36.5478 35.5860 12.10 
1.061 4.0 4.0 0.165 0.165 37.5630 35.5860 12.09 
1.062 4.0 4.0 0.184 0.203 37.5630 35.5860 12.09 
1.063 4.0 4.0 0.215 0.171 36.5478 35.5860 12.09 
1.064 4.0 4.0 0.190 0.171 37.5630 35.5860 12.09 
1.065 4.0 4.0 0.203 0.165 37.5630 36.5478 12.09 
1.066 4.0 4.0 0.253 0.177 36.5478 36.5478 12.09 
1.067 4.0 4.0 0.196 0.177 36.5478 36.5478 12.09 
1.068 4.0 4.0 0.203 0.139 37.5630 35.5860 12.09 
1.069 4.0 4.0 0.215 0.203 36.5478 36.5478 12.09 
1.070 4.0 4.0 0.203 0.190 36.5478 35.5860 12.09 
1.071 4.0 4.0 0.177 0.177 37.5630 35.5860 12.10 
1.072 4.0 4.0 0.234 0.171 34.6736 35.5860 12.10 
1.073 4.0 4.0 0.190 0.158 37.5630 35.5860 12.10 
1.074 4.0 4.0 0.184 0.158 36.5478 35.5860 12.10 
1.075 4.0 4.0 0.203 0.184 33.8067 34.6736 12.10 
1.076 4.0 4.0 0.222 0.152 36.5478 35.5860 12.10 
1.077 4.0 4.0 0.203 0.146 37.5630 35.5860 12.10 
1.078 4.0 4.0 0.222 0.146 35.5860 35.5860 12.10 
1.079 4.0 4.0 0.165 0.184 37.5630 35.5860 12.10 
1.080 4.0 4.0 0.165 0.165 37.5630 35.5860 12.10 
1.081 4.0 4.0 0.209 0.177 36.5478 35.5860 12.10 
1.082 4.0 4.0 0.177 0.165 37.5630 35.5860 12.10 
1.083 4.0 4.0 0.184 0.158 37.5630 36.5478 12.10 
1.084 4.0 4.0 0.241 0.152 34.6736 36.5478 12.10 
1.085 4.0 4.0 0.184 0.171 37.5630 36.5478 12.10 
1.086 4.0 4.0 0.203 0.165 37.5630 36.5478 12.10 
1.087 4.0 4.0 0.241 0.190 34.6736 36.5478 12.10 
1.088 4.0 4.0 0.196 0.209 37.5630 37.5630 12.10 
1.089 4.0 4.0 0.203 0.171 37.5630 36.5478 12.10 
1.090 4.0 4.0 0.260 0.171 34.6736 36.5478 12.10 
1.091 4.0 4.0 0.190 0.152 36.5478 36.5478 12.12 
1.092 4.0 4.0 0.177 0.133 36.5478 36.5478 12.12 
1.093 4.0 4.0 0.215 0.165 37.5630 35.5860 12.12 
1.094 4.0 4.0 0.222 0.184 37.5630 34.6736 12.12 
1.095 4.0 4.0 0.222 0.152 37.5630 35.5860 12.12 
1.096 4.0 4.0 0.247 0.133 36.5478 36.5478 12.09 
1.097 4.0 4.0 0.177 0.146 36.5478 35.5860 12.09 
1.098 4.0 4.0 0.171 0.152 37.5630 35.5860 12.09 
1.099 4.0 4.0 0.215 0.165 37.5630 35.5860 12.09 
1.100 4.0 4.0 0.215 0.171 37.5630 35.5860 12.09 
1.101 4.0 4.0 0.196 0.152 37.5630 35.5860 12.10 
1.102 4.0 4.0 0.247 0.139 37.5630 35.5860 12.10 
1.103 4.0 4.0 0.165 0.184 37.5630 36.5478 12.10 
1.104 4.0 4.0 0.184 0.171 37.5630 36.5478 12.10 
1.105 4.0 4.0 0.215 0.171 37.5630 36.5478 12.10 
1.106 4.0 4.0 0.203 0.171 37.5630 36.5478 12.12 
1.107 4.0 4.0 0.203 0.177 37.5630 36.5478 12.12 
1.108 4.0 4.0 0.241 0.152 36.5478 36.5478 12.12 
1.109 4.0 4.0 0.196 0.158 37.5630 36.5478 12.12 
1.110 4.0 4.0 0.171 0.152 37.5630 36.5478 12.12 
1.111 4.0 4.0 0.228 0.152 37.5630 35.5860 12.10 
1.112 4.0 4.0 0.222 0.171 37.5630 35.5860 12.10 
1.113 4.0 4.0 0.209 0.165 37.5630 34.6736 12.10 
1.114 4.0 4.0 0.209 0.165 35.5860 35.5860 12.10 
1.115 4.0 4.0 0.177 0.165 37.5630 35.5860 12.10 
1.116 4.0 4.0 0.177 0.158 37.5630 35.5860 12.09 
1.117 4.0 4.0 0.228 0.152 36.5478 35.5860 12.09 
1.118 4.0 4.0 0.196 0.095 36.5478 35.5860 12.09 
1.119 4.0 4.0 0.203 0.165 36.5478 36.5478 12.09 
1.120 4.0 4.0 0.228 0.152 36.5478 35.5860 12.09 
1.121 4.0 4.0 0.209 0.165 36.5478 36.5478 12.10 
1.122 4.0 4.0 0.190 0.177 37.5630 36.5478 12.10 
1.123 4.0 4.0 0.241 0.184 37.5630 36.5478 12.10 
1.124 4.0 4.0 0.222 0.171 36.5478 36.5478 12.10 
1.125 4.0 4.0 0.203 0.127 36.5478 36.5478 12.10 
1.126 4.0 4.0 0.222 0.196 36.5478 35.5860 12.10 
1.127 4.0 4.0 0.196 0.177 37.5630 35.5860 12.10 
1.128 4.0 4.0 0.171 0.165 36.5478 35.5860 12.10 
1.129 4.0 4.0 0.228 0.146 38.6363 36.5478 12.10 
1.130 4.0 4.0 0.215 0.158 37.5630 35.5860 12.10 
1.131 4.0 4.0 0.177 0.152 37.5630 35.5860 12.06 
1.132 4.0 4.0 0.247 0.177 37.5630 35.5860 12.06 
1.133 4.0 4.0 0.184 0.158 37.5630 35.5860 12.06 
1.134 4.0 4.0 0.158 0.152 37.5630 36.5478 12.06 
1.135 4.0 4.0 0.228 0.158 37.5630 35.5860 12.06 
1.136 4.0 4.0 0.184 0.095 37.5630 35.5860 12.07 
1.137 4.0 4.0 0.177 0.171 37.5630 35.5860 12.07 
1.138 4.0 4.0 0.247 0.171 37.5630 36.5478 12.07 
1.139 4.0 4.0 0.203 0.165 37.5630 36.5478 12.07 
1.140 4.0 4.0 0.184 0.158 37.5630 36.5478 12.07 
1.141 4.0 4.0 0.222 0.184 37.5630 36.5478 12.10 
1.142 4.0 4.0 0.203 0.190 37.5630 36.5478 12.10 
1.143 4.0 4.0 0.184 0.184 37.5630 35.5860 12.10 
1.144 4.0 4.0 0.228 0.190 37.5630 36.5478 12.10 
1.145 4.0 4.0 0.184 0.196 37.5630 35.5860 12.10 
1.146 4.0 4.0 0.184 0.158 36.5478 35.5860 12.12 
1.147 4.0 4.0 0.234 0.158 37.5630 35.5860 12.12 
1.148 4.0 4.0 0.209 0.114 37.5630 35.5860 12.12 
1.149 4.0 4.0 0.203 0.152 37.5630 35.5860 12.12 
1.150 4.0 4.0 0.234 0.158 36.5478 34.6736 12.12 
1.151 4.0 4.0 0.171 0.177 36.5478 35.5860 12.07 
1.152 4.0 4.0 0.158 0.139 36.5478 35.5860 12.07 
1.153 4.0 4.0 0.241 0.152 36.5478 36.5478 12.07 
1.154 4.0 4.0 0.222 0.165 36.5478 35.5860 12.07 
1.155 4.0 4.0 0.209 0.152 36.5478 35.5860 12.07 
1.156 4.0 4.0 0.253 0.177 37.5630 35.5860 12.10 
1.157 4.0 4.0 0.032 0.152 36.5478 35.5860 12.10 
1.158 4.0 4.0 0.190 0.133 37.5630 36.5478 12.10 
1.159 4.0 4.0 0.228 0.152 37.5630 36.5478 12.10 
1.160 4.0 4.0 0.184 0.203 37.5630 36.5478 12.10 
1.161 4.0 4.0 0.165 0.171 37.5630 36.5478 12.12 
1.162 4.0 4.0 0.228 0.158 37.5630 35.5860 12.12 
1.163 4.0 4.0 0.184 0.203 37.5630 36.5478 12.12 
1.164 4.0 4.0 0.171 0.158 36.5478 35.5860 12.12 
1.165 4.0 4.0 0.228 0.171 38.6363 35.5860 12.12 
1.166 4.0 4.0 0.184 0.177 37.5630 35.5860 12.10 
1.167 4.0 4.0 0.203 0.158 37.5630 35.5860 12.10 
1.168 4.0 4.0 0.253 0.133 37.5630 35.5860 12.10 
1.169 4.0 4.0 0.190 0.171 37.5630 34.6736 12.10 
1.170 4.0 4.0 0.177 0.152 37.5630 35.5860 12.10 
1.171 4.0 4.0 0.228 0.152 36.5478 36.5478 12.10 
1.172 4.0 4.0 0.203 0.158 36.5478 35.5860 12.10 
1.173 4.0 4.0 0.209 0.152 36.5478 35.5860 12.10 
1.174 4.0 4.0 0.253 0.133 36.5478 35.5860 12.10 
1.175 4.0 4.0 0.203 0.165 36.5478 36.5478 12.10 
1.176 4.0 4.0 0.190 0.152 36.5478 36.5478 12.07 
1.177 4.0 4.0 0.222 0.171 37.5630 36.5478 12.07 
1.178 4.0 4.0 0.209 0.184 37.5630 36.5478 12.07 
1.179 4.0 4.0 0.171 0.165 37.5630 36.5478 12.07 
1.180 4.0 4.0 0.234 0.152 37.5630 36.5478 12.07 
1.181 4.0 4.0 0.177 0.177 37.5630 35.5860 12.07 
1.182 4.0 4.0 0.190 0.171 36.5478 36.5478 12.07 
1.183 4.0 4.0 0.222 0.165 38.6363 36.5478 12.07 
1.184 4.0 4.0 0.196 0.177 37.5630 36.5478 12.07 
1.185 4.0 4.0 0.203 0.165 37.5630 36.5478 12.07 
1.186 4.0 4.0 0.241 0.139 37.5630 35.5860 12.09 
1.187 4.0 4.0 0.190 0.184 37.5630 36.5478 12.09 
1.188 4.0 4.0 0.165 0.196 37.5630 35.5860 12.09 
1.189 4.0 4.0 0.209 0.165 37.5630 35.5860 12.09 
1.190 4.0 4.0 0.215 0.152 37.5630 36.5478 12.09 
1.191 4.0 4.0 0.196 0.171 37.5630 36.5478 12.10 
1.192 4.0 4.0 0.228 0.165 37.5630 36.5478 12.10 
1.193 4.0 4.0 0.190 0.152 36.5478 35.5860 12.10 
1.194 4.0 4.0 0.177 0.177 37.5630 36.5478 12.10 
1.195 4.0 4.0 0.203 0.171 37.5630 36.5478 12.10 
1.196 4.0 4.0 0.196 0.171 37.5630 36.5478 12.10 
1.197 4.0 4.0 0.190 0.190 37.5630 36.5478 12.10 
1.198 4.0 4.0 0.222 0.196 37.5630 36.5478 12.10 
1.199 4.0 4.0 0.177 0.171 37.5630 34.6736 12.10 
1.200 4.0 4.0 0.177 0.171 37.5630 37.5630 12.10 
1.201 4.0 4.0 0.203 0.177 36.5478 36.5478 12.06 
1.202 4.0 4.0 0.190 0.165 37.5630 36.5478 12.06 
1.203 4.0 4.0 0.203 0.171 37.5630 36.5478 12.06 
1.204 4.0 4.0 0.241 0.146 37.5630 36.5478 12.06 
1.205 4.0 4.0 0.171 0.158 36.5478 35.5860 12.06 
1.206 4.0 4.0 0.177 0.177 37.5630 34.6736 12.10 
1.207 4.0 4.0 0.234 0.171 36.5478 35.5860 12.10 
1.208 4.0 4.0 0.222 0.171 37.5630 35.5860 12.10 
1.209 4.0 4.0 0.184 0.171 37.5630 35.5860 12.10 
1.210 4.0 4.0 0.247 0.101 37.5630 35.5860 12.10 
1.211 4.0 4.0 0.184 0.095 37.5630 35.5860 12.06 
1.212 4.0 4.0 0.165 0.165 37.5630 36.5478 12.06 
1.213 4.0 4.0 0.234 0.177 37.5630 36.5478 12.06 
1.214 4.0 4.0 0.196 0.171 37.5630 36.5478 12.06 
1.215 4.0 4.0 0.209 0.184 37.5630 36.5478 12.06 
1.216 4.0 4.0 0.247 0.165 37.5630 36.5478 12.09 
1.217 4.0 4.0 0.196 0.177 37.5630 36.5478 12.09 
1.218 4.0 4.0 0.184 0.165 37.5630 35.5860 12.09 
1.219 4.0 4.0 0.203 0.203 38.6363 36.5478 12.09 
1.220 4.0 4.0 0.209 0.184 37.5630 36.5478 12.09 
1.221 4.0 4.0 0.215 0.158 37.5630 36.5478 12.12 
1.222 4.0 4.0 0.247 0.177 37.5630 36.5478 12.12 
1.223 4.0 4.0 0.184 0.139 37.5630 36.5478 12.12 
1.224 4.0 4.0 0.177 0.139 37.5630 35.5860 12.12 
1.225 4.0 4.0 0.228 0.165 37.5630 35.5860 12.12 
1.226 4.0 4.0 0.209 0.165 37.5630 35.5860 12.09 
1.227 4.0 4.0 0.190 0.146 37.5630 35.5860 12.09 
1.228 4.0 4.0 0.222 0.171 34.6736 35.5860 12.09 
1.229 4.0 4.0 0.196 0.146 36.5478 36.5478 12.09 
1.230 4.0 4.0 0.196 0.146 37.5630 35.5860 12.09 
1.231 4.0 4.0 0.222 0.171 36.5478 35.5860 12.10 
1.232 4.0 4.0 0.196 0.139 37.5630 35.5860 12.10 
1.233 4.0 4.0 0.184 0.165 37.5630 36.5478 12.10 
1.234 4.0 4.0 0.247 0.158 36.5478 35.5860 12.10 
1.235 4.0 4.0 0.177 0.190 37.5630 36.5478 12.10 
1.236 4.0 4.0 0.171 0.171 36.5478 36.5478 12.12 
1.237 4.0 4.0 0.228 0.171 36.5478 36.5478 12.12 
1.238 4.0 4.0 0.203 0.158 37.5630 36.5478 12.12 
1.239 4.0 4.0 0.215 0.152 37.5630 36.5478 12.12 
1.240 4.0 4.0 0.228 0.171 37.5630 36.5478 12.12 
1.241 4.0 4.0 0.184 0.158 37.5630 36.5478 12.10 
1.242 4.0 4.0 0.184 0.139 37.5630 35.5860 12.10 
1.243 4.0 4.0 0.215 0.165 36.5478 35.5860 12.10 
1.244 4.0 4.0 0.203 0.165 37.5630 34.6736 12.10 
1.245 4.0 4.0 0.177 0.171 37.5630 35.5860 12.10 
1.246 4.0 4.0 0.241 0.158 37.5630 35.5860 12.06 
1.247 4.0 4.0 0.177 0.177 37.5630 35.5860 12.06 
1.248 4.0 4.0 0.196 0.158 37.5630 35.5860 12.06 
1.249 4.0 4.0 0.234 0.165 36.5478 35.5860 12.06 
1.250 4.0 4.0 0.222 0.171 37.5630 35.5860 12.06 
1.251 4.0 4.0 0.196 0.158 37.5630 36.5478 12.10 
1.252 4.0 4.0 0.228 0.165 36.5478 36.5478 12.10 
1.253 4.0 4.0 0.152 0.190 37.5630 36.5478 12.10 
1.254 4.0 4.0 0.171 0.177 37.5630 36.5478 12.10 
1.255 4.0 4.0 0.203 0.177 37.5630 32.9822 12.10 
1.256 4.0 4.0 0.196 0.196 37.5630 36.5478 12.10 
1.257 4.0 4.0 0.184 0.196 37.5630 36.5478 12.10 
1.258 4.0 4.0 0.247 0.108 37.5630 36.5478 12.10 
1.259 4.0 4.0 0.171 0.165 37.5630 36.5478 12.10 
1.260 4.0 4.0 0.190 0.152 37.5630 36.5478 12.10 
1.261 4.0 4.0 0.203 0.152 36.5478 35.5860 12.10 
1.262 4.0 4.0 0.177 0.165 37.5630 34.6736 12.10 
1.263 4.0 4.0 0.203 0.171 37.5630 35.5860 12.10 
1.264 4.0 4.0 0.222 0.139 36.5478 36.5478 12.10 
1.265 4.0 4.0 0.190 0.146 37.5630 36.5478 12.10 
1.266 4.0 4.0 0.184 0.158 37.5630 36.5478 12.10 
1.267 4.0 4.0 0.215 0.101 36.5478 35.5860 12.10 
1.268 4.0 4.0 0.190 0.196 37.5630 36.5478 12.10 
1.269 4.0 4.0 0.209 0.146 36.5478 36.5478 12.10 
1.270 4.0 4.0 0.228 0.146 36.5478 36.5478 12.10 
1.271 4.0 4.0 0.177 0.158 37.5630 36.5478 12.12 
1.272 4.0 4.0 0.203 0.165 37.5630 36.5478 12.12 
1.273 4.0 4.0 0.222 0.171 37.5630 36.5478 12.12 
1.274 4.0 4.0 0.203 0.127 37.5630 35.5860 12.12 
1.275 4.0 4.0 0.209 0.177 37.5630 36.5478 12.12 
1.276 4.0 4.0 0.203 0.184 36.5478 35.5860 12.09 
1.277 4.0 4.0 0.184 0.165 37.5630 35.5860 12.09 
1.278 4.0 4.0 0.190 0.152 37.5630 35.5860 12.09 
1.279 4.0 4.0 0.203 0.171 36.5478 33.8067 12.09 
1.280 4.0 4.0 0.209 0.165 37.5630 35.5860 12.09 
1.281 4.0 4.0 0.190 0.196 37.5630 35.5860 12.06 
1.282 4.0 4.0 0.215 0.171 36.5478 36.5478 12.06 
1.283 4.0 4.0 0.203 0.152 37.5630 36.5478 12.06 
1.284 4.0 4.0 0.190 0.165 37.5630 36.5478 12.06 
1.285 4.0 4.0 0.222 0.165 37.5630 36.5478 12.06 
1.286 4.0 4.0 0.203 0.171 37.5630 35.5860 12.07 
1.287 4.0 4.0 0.184 0.190 38.6363 35.5860 12.07 
1.288 4.0 4.0 0.190 0.158 37.5630 35.5860 12.07 
1.289 4.0 4.0 0.158 0.165 37.5630 35.5860 12.07 
1.290 4.0 4.0 0.158 0.184 38.6363 36.5478 12.07 
1.291 4.0 4.0 0.215 0.165 37.5630 36.5478 12.10 
1.292 4.0 4.0 0.177 0.184 37.5630 36.5478 12.10 
1.293 4.0 4.0 0.184 0.127 37.5630 37.5630 12.10 
1.294 4.0 4.0 0.184 0.146 37.5630 36.5478 12.10 
1.295 4.0 4.0 0.177 0.152 37.5630 36.5478 12.10 
1.296 4.0 4.0 0.158 0.158 36.5478 36.5478 12.10 
1.297 4.0 4.0 0.222 0.158 37.5630 36.5478 12.10 
1.298 4.0 4.0 0.196 0.146 37.5630 35.5860 12.10 
1.299 4.0 4.0 0.209 0.165 38.6363 35.5860 12.10 
1.300 4.0 4.0 0.215 0.171 37.5630 35.5860 12.10 
1.301 4.0 4.0 0.171 0.152 37.5630 35.5860 12.13 
1.302 4.0 4.0 0.209 0.152 37.5630 36.5478 12.13 
1.303 4.0 4.0 0.196 0.171 37.5630 36.5478 12.13 
1.304 4.0 4.0 0.184 0.146 37.5630 35.5860 12.13 
1.305 4.0 4.0 0.222 0.146 37.5630 35.5860 12.13 
1.306 4.0 4.0 0.209 0.165 37.5630 36.5478 12.09 
1.307 4.0 4.0 0.177 0.095 37.5630 36.5478 12.09 
1.308 4.0 4.0 0.222 0.152 37.5630 36.5478 12.09 
1.309 4.0 4.0 0.222 0.133 36.5478 36.5478 12.09 
1.310 4.0 4.0 0.209 0.177 36.5478 36.5478 12.09 
1.311 4.0 4.0 0.203 0.184 36.5478 35.5860 12.10 
1.312 4.0 4.0 0.184 0.184 37.5630 37.5630 12.10 
1.313 4.0 4.0 0.171 0.171 37.5630 36.5478 12.10 
1.314 4.0 4.0 0.196 0.171 36.5478 36.5478 12.10 
1.315 4.0 4.0 0.222 0.152 37.5630 36.5478 12.10 
1.316 4.0 4.0 0.184 0.152 37.5630 36.5478 12.12 
1.317 4.0 4.0 0.209 0.146 37.5630 35.5860 12.12 
1.318 4.0 4.0 0.222 0.158 37.5630 35.5860 12.12 
1.319 4.0 4.0 0.184 0.158 37.5630 36.5478 12.12 
1.320 4.0 4.0 0.209 0.152 37.5630 36.5478 12.12 
1.321 4.0 4.0 0.215 0.165 37.5630 35.5860 12.12 
1.322 4.0 4.0 0.196 0.158 37.5630 35.5860 12.12 
1.323 4.0 4.0 0.190 0.171 38.6363 35.5860 12.12 
1.324 4.0 4.0 0.177 0.184 37.5630 36.5478 12.12 
1.325 4.0 4.0 0.152 0.171 36.5478 36.5478 12.12 
1.326 4.0 4.0 0.203 0.165 38.6363 36.5478 12.07 
1.327 4.0 4.0 0.190 0.171 37.5630 36.5478 12.07 
1.328 4.0 4.0 0.190 0.184 37.5630 36.5478 12.07 
1.329 4.0 4.0 0.228 0.152 37.5630 36.5478 12.07 
1.330 4.0 4.0 0.184 0.177 37.5630 36.5478 12.07 
1.331 4.0 4.0 0.158 0.203 37.5630 36.5478 12.10 
1.332 4.0 4.0 0.222 0.165 36.5478 36.5478 12.10 
1.333 4.0 4.0 0.203 0.165 37.5630 36.5478 12.10 
1.334 4.0 4.0 0.203 0.152 37.5630 36.5478 12.10 
1.335 4.0 4.0 0.209 0.158 37.5630 35.5860 12.10 
1.336 4.0 4.0 0.196 0.177 37.5630 35.5860 12.10 
1.337 4.0 4.0 0.190 0.165 37.5630 35.5860 12.10 
1.338 4.0 4.0 0.215 0.158 37.5630 36.5478 12.10 
1.339 4.0 4.0 0.222 0.146 37.5630 36.5478 12.10 
1.340 4.0 4.0 0.209 0.152 37.5630 36.5478 12.10 
1.341 4.0 4.0 0.228 0.171 37.5630 35.5860 12.09 
1.342 4.0 4.0 0.209 0.165 37.5630 35.5860 12.09 
1.343 4.0 4.0 0.177 0.177 36.5478 36.5478 12.09 
1.344 4.0 4.0 0.222 0.158 38.6363 36.5478 12.09 
